{"name": "cdisc-rules-engine", "metadata": {"name": "cdisc-rules-engine", "version": "0.9.0", "classifiers": [], "home_page": "https://github.com/cdisc-org/cdisc-rules-engine", "license": "MIT", "documentation_url": null, "dependencies": ["pandas", "business-rules-enhanced", "python-dotenv", "cdisc-library-client", "odmlib", "xport", "redis", "openpyxl", "importlib-metadata"], "summary": "Open source offering of the cdisc rules engine", "upload_time": 1734647767}, "documentation": ["### Supported python versions\n\n[![Python 3.9](https://img.shields.io/badge/python-3.9-green.svg)](https://www.python.org/downloads/release/python-390)\n[![Python 3.10](https://img.shields.io/badge/python-3.10-blue.svg)](https://www.python.org/downloads/release/python-3100)\n\n### Windows Command Compatibility\n\nNote: The Windows commands provided in this README are written for PowerShell. While most commands are compatible with both PowerShell and Command Prompt, some adjustments may be necessary when using Command Prompt. If you encounter any issues running these commands in Command Prompt, try using PowerShell or consult the Command Prompt documentation for equivalent commands.\n\n# cdisc-rules-engine\n\nOpen source offering of the CDISC Rules Engine, a tool designed for validating clinical trial data against data standards.\nTo learn more, visit our official CDISC website or for other implementation options, see our DockerHub repository:  \n<br>  \n[CDISC Website](https://www.cdisc.org/)  \n<br>  \n[CDISC Rules Engine on DockerHub](https://hub.docker.com/repository/docker/cdiscdocker/cdisc-rules-engine/general)\n\n### **Quick start**\n\nTo quickly get up and running with CORE, users can download the latest executable version of the engine for their operating system from here: <https://github.com/cdisc-org/cdisc-rules-engine/releases>\n\nOnce downloaded, simply unzip the file and run the following command based on your Operating System:\n\nWindows:\n\n```\n.\\core.exe validate -s <standard> -v <standard_version> -d path/to/datasets\n\n# ex: .\\core.exe validate -s sdtmig -v 3-4 -d .\\xpt\\\n```\n\nLinux/Mac:\n\n```\n./core validate -s <standard> -v <standard_version> -d path/to/datasets\n\n# ex: ./core validate -s sdtmig -v 3-4 -d .\\xpt\\\n```\n\n### **Code formatter**\n\nThis project uses the `black` code formatter, `flake8` linter for python and `prettier` for JSON, YAML and MD.\nIt also uses `pre-commit` to run `black`, `flake8` and `prettier` when you commit.\nBoth dependencies are added to _requirements.txt_.\n\n**Required**\n\nSetting up `pre-commit` requires one extra step. After installing it you have to run\n\n`pre-commit install`\n\nThis installs `pre-commit` in your `.git/hooks` directory.\n\n### **Installing dependencies**\n\nThese steps should be run before running any tests or core commands using the non compiled version.\n\n- Create a virtual environment:\n  `python -m venv <virtual_environment_name>`\n- Activate the virtual environment:\n\n`./<virtual_environment_name>/bin/activate` -- on linux/mac </br>\n`.\\<virtual_environment_name>\\Scripts\\Activate` -- on windows\n\n- Install the requirements.\n\n`python -m pip install -r requirements.txt` # From the root directory\n\n### **Running The Tests**\n\nFrom the root of the project run the following command (this will run both the unit and regression tests):\n\n`python -m pytest tests`\n\n### **Running a validation**\n\n#### From the command line\n\nClone the repository and run `python core.py --help` to see the full list of commands.\n\nRun `python core.py validate --help` to see the list of validation options.\n\n```\n  -ca, --cache TEXT               Relative path to cache files containing pre\n                                  loaded metadata and rules\n  -ps, --pool-size INTEGER         Number of parallel processes for validation\n  -d, --data TEXT                 Path to directory containing data files\n  -dp, --dataset-path TEXT        Absolute path to dataset file. Can be specified multiple times.\n  -dxp, --define_xml_path TEXT    Path to Define-XML\n  -l, --log-level [info|debug|error|critical|disabled|warn]\n                                  Sets log level for engine logs, logs are\n                                  disabled by default\n  -rt, --report-template TEXT     File path of report template to use for\n                                  excel output\n  -s, --standard TEXT             CDISC standard to validate against\n                                  [required]\n  -v, --version TEXT              Standard version to validate against\n                                  [required]\n  -ss, --substandard TEXT         Substandard to validate against\n                                  [required for TIG]\n  -ct, --controlled-terminology-package TEXT\n                                  Controlled terminology package to validate\n                                  against, can provide more than one\n                                  NOTE: if a defineXML is provided, if it is version 2.1\n                                  engine will use the CT laid out in the define.  If it is\n                                  version 2.0, -ct is expected to specify the CT package\n  -o, --output TEXT               Report output file destination and name. Path will be\n                                  relative to the validation execution directory\n                                  and should end in the desired output filename\n                                  without file extension\n                                  '/user/reports/result' will be 'user/report' directory\n                                  with the filename as 'result'\n  -of, --output-format [JSON|XLSX]\n                                  Output file format\n  -rr, --raw-report               Report in a raw format as it is generated by\n                                  the engine. This flag must be used only with\n                                  --output-format JSON.\n  -dv, --define-version TEXT      Define-XML version used for validation\n  -dxp, --define-xml-path         Path to define-xml file.\n  --whodrug TEXT                  Path to directory with WHODrug dictionary\n                                  files\n  --meddra TEXT                   Path to directory with MedDRA dictionary\n                                  files\n  --loinc TEXT                  Path to directory with LOINC dictionary\n                                  files\n  --medrt TEXT                  Path to directory with MEDRT dictionary\n                                  files\n  --unii TEXT                  Path to directory with UNII dictionary\n                                  files\n  --snomed-version TEXT        Version of snomed to use. (ex. 2024-09-01)\n  --snomed-url TEXT            Base url of snomed api to use. (ex. https://snowstorm.snomedtools.org/snowstorm/snomed-ct)\n  --snomed-edition TEXT        Edition of snomed to use. (ex. SNOMEDCT-US)\n  -r, --rules TEXT                Specify rule core ID ex. CORE-000001. Can be specified multiple times.\n  -lr, --local_rules TEXT         Specify relative path to directory containing\n                                  local rule yml and/or json rule files.\n  -lrc, --local_rules_cache       Adding this flag tells engine to use local rules\n                                  uploaded to the cache instead of published rules\n                                  in the cache for the validation run.\n  -lri, --local_rule_id TEXT      Specify ID for custom, local rules in the cache\n                                  you wish to run a validation with.\n  -vo, --verbose-output           Specify this option to print rules as they\n                                  are completed\n  -p, --progress [verbose_output|disabled|percents|bar]\n                                  Defines how to display the validation\n                                  progress. By default a progress bar like\n                                  \"[\u2588\u2588\u2588\u2588\u2588\u2588\u2588\u2588\u2588\u2588\u2588\u2588\u2588\u2588\u2588\u2588\u2588\u2588\u2588\u2588\u2588\u2588\u2588\u2588\u2588\u2588\u2588\u2588--------]\n                                  78%\"is printed.\n  --help                          Show this message and exit.\n```\n\n##### Available log levels\n\n- `debug` - Display all logs\n- `info` - Display info, warnings, and error logs\n- `warn` - Display warnings and errors\n- `error` - Display only error logs\n- `critical` - Display critical logs\n\n##### **Validate folder**\n\nTo validate a folder using rules for SDTM-IG version 3.4 use the following command:\n\n    `python core.py validate -s sdtmig -v 3-4 -d path/to/datasets`\n\n##### **Understanding the Rules Report**\n\nThe rules report tab displays the run status of each rule selected for validation\n\nThe possible rule run statuses are:\n\n- `SUCCESS` - The rule ran and data was validated against the rule. May or may not produce results\n- `SKIPPED` - The rule was unable to be run. Usually due to missing required data, but could also be cause by rule execution errors.\n\n##### Additional Core Commands\n\n**- update-cache** - update locally stored cache data (Requires an environment variable - `CDISC_LIBRARY_API_KEY`)\n\n    `python core.py update-cache`\n\nTo obtain an api key, please follow the instructions found here: <https://wiki.cdisc.org/display/LIBSUPRT/Getting+Started%3A+Access+to+CDISC+Library+API+using+API+Key+Authentication>. Please note it can take up to an hour after sign up to have an api key issued\n\n- an additional local rule `-lr` flag can be added to the update-cache command that points to a directory of local rules. This adds the rules contained in the directory to the cache. It will not update the cache from library when `-lr` is specified. A `-lri` local rules ID must be given when -lr is used to ID your rules in the cache.\n  **NOTE:** local rules must contain a 'custom_id' key to be added to the cache. This should replace the Core ID field in the rule.\n\n            `python core.py update-cache -lr 'path/to/directory' -lri 'CUSTOM123'`\n\n- to remove local rules from to the cache, remove rules `-rlr` is added to update-cache to remove local rules from the cache. A previously used local_rules_id can be specified to remove all local rules with that ID from the cache or the keyword 'ALL' is reserved to remove all local rules from the cache.\n\n          `python core.py update-cache -rlr 'CUSTOM123'`\n\n**- list-rules** - list published rules available in the cache\n\n- list all published rules:\n\n      `python core.py list-rules`\n\n- list rules for standard:\n\n      `python core.py list-rules -s sdtmig -v 3-4`\n\n-list all local rules:\n\n      `python core.py list-rules -lr`\n\n-list local rules with a specific local rules id:\n\n      `python core.py list-rules -lr -lri 'CUSTOM1'`\n\n**- list-rule-sets** - lists all standards and versions for which rules are available:\n`python core.py list-rule-sets`\n\n**- test** - Test authored rule given dataset in json format\n\n```\n  -ca, --cache TEXT               Relative path to cache files containing pre\n                                  loaded metadata and rules\n  -dp, --dataset-path TEXT        Absolute path to dataset file\n  -d, --data TEXT                 Path to directory containing data files\n  -l, --log-level [info|debug|error|critical|disabled|warn]\n                                  Sets log level for engine logs, logs are\n                                  disabled by default\n  -s, --standard TEXT             CDISC standard to validate against\n                                  [required]\n  -v, --version TEXT              Standard version to validate against\n                                  [required]\n  -ss, --substandard TEXT         Substandard to validate against\n                                  [required for TIG]\n  -ct, --controlled-terminology-package TEXT\n                                  Controlled terminology package to validate\n                                  against, can provide more than one\n  -dv, --define-version TEXT      Define-XML version used for validation\n  --whodrug TEXT                  Path to directory with WHODrug dictionary\n                                  files\n  --meddra TEXT                   Path to directory with MedDRA dictionary\n                                  files\n  --loinc TEXT                    Path to directory with LOINC dictionary\n                                  files\n  -r, --rule TEXT                 Path to rule json file.\n  -dxp                            Path to define-xml file.\n  --help                          Show this message and exit.\n```\n\nEX: `python core.py test -s sdtmig -v 3-4 -dp <path to dataset json file> -r <path to rule json file> --meddra ./meddra/ --whodrug ./whodrug/`\nNote: JSON dataset should match the format provided by the rule editor:\n\n```\n{\n    \"datasets\": [{\n      \"filename\": \"cm.xpt\",\n      \"label\": \"Concomitant/Concurrent medications\",\n      \"domain\": \"CM\",\n      \"variables\": [\n        {\n          \"name\": \"STUDYID\",\n          \"label\": \"Study Identifier\",\n          \"type\": \"Char\",\n          \"length\": 10\n        }\n      ],\n      \"records\": {\n        \"STUDYID\": [\n          \"CDISC-TEST\",\n          \"CDISC-TEST\",\n          \"CDISC-TEST\",\n          \"CDISC-TEST\"\n        ],\n      }\n    }\n  ]\n}\n```\n\n**- list-ct** - list ct packages available in the cache\n\n```\nUsage: python core.py list-ct [OPTIONS]\n\n  Command to list the ct packages available in the cache.\n\nOptions:\n  -c, --cache_path TEXT  Relative path to cache files containing pre loaded\n                         metadata and rules\n  -s, --subsets TEXT     CT package subset type. Ex: sdtmct. Multiple values\n                         allowed\n  --help                 Show this message and exit.\n```\n\n#### **PyPI Quickstart: Validate data within python**\n\nAn alternative to running the validation from the command line is to instead import the rules engine library in python and run rules against data directly (without needing your data to be in `.xpt` format).\n\n##### Step 0: Install the library\n\n```\npip install cdisc-rules-engine\n```\n\nIn addition to installing the library, you'll also want to download the rules cache (found in the `resources/cache` folder of this repository) and store them somewhere in your project.\n\n##### Step 1: Load the Rules\n\nThe rules can be loaded into an in-memory cache by doing the following:\n\n```python\nimport os\nimport pathlib\n\nfrom multiprocessing.managers import SyncManager\nfrom cdisc_rules_engine.services.cache import InMemoryCacheService\n\nclass CacheManager(SyncManager):\n    pass\n\n# If you're working from a terminal you may need to\n# use SyncManager directly rather than define CacheManager\nCacheManager.register(\"InMemoryCacheService\", InMemoryCacheService)\n\n\ndef load_rules_cache(path_to_rules_cache):\n  cache_path = pathlib.Path(path_to_rules_cache)\n  manager = CacheManager()\n  manager.start()\n  cache = manager.InMemoryCacheService()\n\n  files = next(os.walk(cache_path), (None, None, []))[2]\n\n  for fname in files:\n      with open(cache_path / fname, \"rb\") as f:\n          cache.add_all(pickle.load(f))\n\n  return cache\n```\n\nRules in this cache can be accessed by standard and version using the `get_rules_cache_key` function.\n\n```python\nfrom cdisc_rules_engine.utilities.utils import get_rules_cache_key\n\ncache = load_rules_cache()\n# Note that the standard version is separated by a dash, not a period\ncache_key_prefix = get_rules_cache_key(\"sdtmig\", \"3-4\")\nrules = cache.get_all_by_prefix(cache_key_prefix)\n```\n\n`rules` will now be a list of dictionaries the following keys\n\n- `core_id`\n  - e.g. \"CORE-000252\"\n- `domains`\n  - e.g. `{'Include': ['DM'], 'Exclude': []}` or `{'Include': ['ALL']}`\n- `author`\n- `reference`\n- `sensitivity`\n- `executability`\n- `description`\n- `authorities`\n- `standards`\n- `classes`\n- `rule_type`\n- `conditions`\n- `actions`\n- `datasets`\n- `output_variables`\n\n##### Step 2: Prepare your data\n\nIn order to pass your data through the rules engine, it must be a pandas dataframe of an SDTM dataset. For example:\n\n```\n>>> data\nSTUDYID DOMAIN USUBJID  AESEQ AESER    AETERM    ... AESDTH AESLIFE AESHOSP\n0          AE      001     0     Y     Headache  ...     N       N       N\n\n[1 rows x 19 columns]\n```\n\nBefore passing this into the rules engine, we need to wrap it in a DatasetVariable.\n\n```python\nfrom cdisc_rules_engine.models.dataset_variable import DatasetVariable\n\ndataset = DatasetVariable(data)\n```\n\n##### Step 3: Run the (relevant) rules\n\nNext, we need to actually run the rules. We can select which rules we want to run based on the domain of the data we're checking and the `\"Include\"` and `\"Exclude\"` domains of the rule.\n\n```python\n# Get the rules for the domain AE\n# (Note: we're ignoring ALL domain rules here)\nae_rules = [\n  rule for rule in rules\n  if \"AE\" in rule[\"domains\"].get(\"Include\", [])\n]\n```\n\nThere's one last thing we need before we can actually run the rule, and that's a `COREActions` object. This object will handle generating error messages should the rule fail.\n\nTo instantiate a `COREActions` object, we need to pass in the following:\n\n- `results`: An array to which errors will be appended\n- `variable`: Our DatasetVariable\n- `domain`: e.g. \"AE\"\n- `rule`: Our rule\n\n```python\nfrom cdisc_rules_engine.models.actions import COREActions\n\nrule = ae_rules[0]\nresults = []\ncore_actions = COREActions(\n  results,\n  variable=dataset,\n  domain=\"AE\",\n  rule=rule\n)\n```\n\nAll that's left is to run the rule!\n\n```python\nfrom business_rules.engine import run\n\nwas_triggered = run(\n  rule=rule,\n  defined_variables=dataset_variable,\n  defined_actions=core_actions,\n)\n```\n\n##### Step 5: Interpret the results\n\nThe return value of run will tell us if the rule was triggered.\n\n- A `False` value means that there were no errors\n- A `True` value means that there were errors\n\nIf there were errors, they will have been appended to the results array passed into your `COREActions` instance. Here's an example error:\n\n```python\n{\n  'executionStatus': 'success',\n  'domain': 'AE',\n  'variables': ['AESLIFE'],\n  'message': 'AESLIFE is completed, but not equal to \"N\" or \"Y\"',\n  'errors': [\n    {'value': {'AESLIFE': 'Maybe'}, 'row': 1}\n  ]\n}\n```\n\n### **Creating an executable version**\n\n**Linux**\n\n`pyinstaller core.py --add-data=venv/lib/python3.9/site-packages/xmlschema/schemas:xmlschema/schemas --add-data=resources/cache:resources/cache --add-data=resources/templates:resources/templates`\n\n**Windows**\n\n`pyinstaller core.py --add-data=\".venv/Lib/site-packages/xmlschema/schemas;xmlschema/schemas\" --add-data=\"resources/cache;resources/cache\" --add-data=\"resources/templates;resources/templates\"`\n\n_Note .venv should be replaced with path to python installation or virtual environment_\n\nThis will create an executable version in the `dist` folder. The version does not require having Python installed and\ncan be launched by running `core` script with all necessary CLI arguments.\n\n### **Creating .whl file**\n\nAll non-python files should be listed in `MANIFEST.in` to be included in the distribution.\nFiles must be in python package.\n\n**Unix/MacOS**\n\n`python3 -m pip install --upgrade build`\n`python3 -m build`\n\nTo install from dist folder\n`pip3 install {path_to_file}/cdisc_rules_engine-{version}-py3-none-any.whl`\n\nTo upload built distributive to pypi\n\n`python3 -m pip install --upgrade twine`\n`python3 -m twine upload --repository {repository_name} dist/*`\n\n**Windows(Untested)**\n\n`py -m pip install --upgrade build`\n`py -m build`\n\nTo install from dist folder\n`pip install {path_to_file}/cdisc_rules_engine-{version}-py3-none-any.whl`\n\nTo upload built distributive to pypi\n\n`py -m pip install --upgrade twine`\n`py -m twine upload --repository {repository_name} dist/*`\n"], "modules": [{"name": "cdisc_rules_engine.models.dataset_types", "documentation": [], "functions": [], "variables": [], "classes": [{"name": "cdisc_rules_engine.models.dataset_types.DatasetTypes", "bases": ["BaseEnum"], "methods": [], "class_variables": [{"name": "cdisc_rules_engine.models.dataset_types.DatasetTypes.CONTENTS", "type": null, "documentation": []}, {"name": "cdisc_rules_engine.models.dataset_types.DatasetTypes.METADATA", "type": null, "documentation": []}, {"name": "cdisc_rules_engine.models.dataset_types.DatasetTypes.RAW_METADATA", "type": null, "documentation": []}, {"name": "cdisc_rules_engine.models.dataset_types.DatasetTypes.VARIABLES_METADATA", "type": null, "documentation": []}], "instance_variables": [], "inner_classes": [], "documentation": []}], "exports": []}, {"name": "cdisc_rules_engine.plugin_loader", "documentation": [], "functions": [], "variables": [], "classes": [{"name": "cdisc_rules_engine.plugin_loader.PluginLoader", "bases": [], "methods": [{"name": "cdisc_rules_engine.plugin_loader.PluginLoader.load", "asynchronous": false, "params": [{"name": "self", "type": null, "default": null}], "returns": null, "documentation": ["Entrypoint method that loads plugins for related groups."]}, {"name": "cdisc_rules_engine.plugin_loader.PluginLoader.register_group_factory", "asynchronous": false, "params": [{"name": "cls", "type": null, "default": null}, {"name": "group_name", "type": {"name": "str", "xref": {"fqname": "functions.str", "project": "--std--"}, "params": null}, "default": null}, {"name": "factory_class", "type": {"name": "Type", "xref": {"fqname": "typing.Type", "project": "--std--"}, "params": [{"name": "FactoryInterface", "xref": {"fqname": "cdisc_rules_engine.interfaces.FactoryInterface", "project": null}, "params": null}]}, "default": null}], "returns": null, "documentation": ["Registers new plugin group and factory."]}, {"name": "cdisc_rules_engine.plugin_loader.PluginLoader.__register_group_plugins", "asynchronous": false, "params": [{"name": "self", "type": null, "default": null}, {"name": "factory_class", "type": {"name": "Type", "xref": {"fqname": "typing.Type", "project": "--std--"}, "params": [{"name": "FactoryInterface", "xref": {"fqname": "cdisc_rules_engine.interfaces.FactoryInterface", "project": null}, "params": null}]}, "default": null}, {"name": "group_plugins", "type": {"name": "EntryPoints", "xref": {"fqname": "importlib.metadata.EntryPoints", "project": "--std--"}, "params": null}, "default": null}], "returns": null, "documentation": ["Registers all given plugins in the factory."]}], "class_variables": [{"name": "cdisc_rules_engine.plugin_loader.PluginLoader.__group_factory_map", "type": {"name": "Dict", "xref": {"fqname": "typing.Dict", "project": "--std--"}, "params": [{"name": "str", "xref": {"fqname": "functions.str", "project": "--std--"}, "params": null}, {"name": "Type", "xref": {"fqname": "typing.Type", "project": "--std--"}, "params": [{"name": "FactoryInterface", "xref": {"fqname": "cdisc_rules_engine.interfaces.FactoryInterface", "project": null}, "params": null}]}]}, "documentation": []}], "instance_variables": [], "inner_classes": [], "documentation": ["This class is responsible for loading plugins\nfrom virtual environment. A plugin is\nexpected to be a Python package with the class\nthat implements a desired interface."]}], "exports": []}, {"name": "cdisc_rules_engine.models.dataset_variable", "documentation": [], "functions": [{"name": "cdisc_rules_engine.models.dataset_variable.dataframe_rule_variable", "asynchronous": false, "params": [{"name": "label", "type": null, "default": "..."}, {"name": "options", "type": null, "default": "..."}], "returns": null, "documentation": []}], "variables": [], "classes": [{"name": "cdisc_rules_engine.models.dataset_variable.DatasetVariable", "bases": ["BaseVariables"], "methods": [{"name": "cdisc_rules_engine.models.dataset_variable.DatasetVariable.__init__", "asynchronous": false, "params": [{"name": "self", "type": null, "default": null}, {"name": "dataset", "type": {"name": "DataFrame", "xref": {"fqname": "pandas.DataFrame", "project": "pandas"}, "params": null}, "default": null}, {"name": "**params", "type": null, "default": null}], "returns": null, "documentation": []}, {"name": "cdisc_rules_engine.models.dataset_variable.DatasetVariable.get_dataset", "asynchronous": false, "params": [{"name": "self", "type": null, "default": null}], "returns": {"name": "dict", "xref": {"fqname": "functions.dict", "project": "--std--"}, "params": null}, "documentation": ["common variables"]}], "class_variables": [], "instance_variables": [], "inner_classes": [], "documentation": ["The class represents a dataset variable which\nholds a pandas DataFrame as a dataset.\nThe engine uses operators like equal_to, matches_regex etc.\nto validate the dataset columns."]}], "exports": []}, {"name": "cdisc_rules_engine.models.dataset_metadata", "documentation": [], "functions": [], "variables": [], "classes": [{"name": "cdisc_rules_engine.models.dataset_metadata.DatasetMetadata", "bases": [], "methods": [], "class_variables": [{"name": "cdisc_rules_engine.models.dataset_metadata.DatasetMetadata.name", "type": {"name": "str", "xref": {"fqname": "functions.str", "project": "--std--"}, "params": null}, "documentation": []}, {"name": "cdisc_rules_engine.models.dataset_metadata.DatasetMetadata.domain_name", "type": {"name": "str", "xref": {"fqname": "functions.str", "project": "--std--"}, "params": null}, "documentation": []}, {"name": "cdisc_rules_engine.models.dataset_metadata.DatasetMetadata.label", "type": {"name": "str", "xref": {"fqname": "functions.str", "project": "--std--"}, "params": null}, "documentation": []}, {"name": "cdisc_rules_engine.models.dataset_metadata.DatasetMetadata.modification_date", "type": {"name": "str", "xref": {"fqname": "functions.str", "project": "--std--"}, "params": null}, "documentation": []}, {"name": "cdisc_rules_engine.models.dataset_metadata.DatasetMetadata.filename", "type": {"name": "str", "xref": {"fqname": "functions.str", "project": "--std--"}, "params": null}, "documentation": []}, {"name": "cdisc_rules_engine.models.dataset_metadata.DatasetMetadata.size", "type": {"name": "Union", "xref": {"fqname": "typing.Union", "project": "--std--"}, "params": [{"name": "int", "xref": {"fqname": "functions.int", "project": "--std--"}, "params": null}, {"name": "float", "xref": {"fqname": "functions.float", "project": "--std--"}, "params": null}]}, "documentation": []}, {"name": "cdisc_rules_engine.models.dataset_metadata.DatasetMetadata.records", "type": {"name": "str", "xref": {"fqname": "functions.str", "project": "--std--"}, "params": null}, "documentation": []}, {"name": "cdisc_rules_engine.models.dataset_metadata.DatasetMetadata.full_path", "type": {"name": "str", "xref": {"fqname": "functions.str", "project": "--std--"}, "params": null}, "documentation": []}], "instance_variables": [], "inner_classes": [], "documentation": ["This class is a container for dataset metadata"]}], "exports": []}, {"name": "cdisc_rules_engine.models.failed_validation_entity", "documentation": [], "functions": [], "variables": [], "classes": [{"name": "cdisc_rules_engine.models.failed_validation_entity.FailedValidationEntity", "bases": ["BaseValidationEntity"], "methods": [{"name": "cdisc_rules_engine.models.failed_validation_entity.FailedValidationEntity.__init__", "asynchronous": false, "params": [{"name": "self", "type": null, "default": null}, {"name": "error", "type": {"name": "str", "xref": {"fqname": "functions.str", "project": "--std--"}, "params": null}, "default": null}, {"name": "message", "type": {"name": "str", "xref": {"fqname": "functions.str", "project": "--std--"}, "params": null}, "default": null}, {"name": "dataset", "type": {"name": "str", "xref": {"fqname": "functions.str", "project": "--std--"}, "params": null}, "default": null}], "returns": null, "documentation": []}, {"name": "cdisc_rules_engine.models.failed_validation_entity.FailedValidationEntity.to_representation", "asynchronous": false, "params": [{"name": "self", "type": null, "default": null}], "returns": {"name": "dict", "xref": {"fqname": "functions.dict", "project": "--std--"}, "params": null}, "documentation": []}], "class_variables": [], "instance_variables": [], "inner_classes": [], "documentation": ["The entity describes an error that occurred during validation\nindicating that the process has finished its execution with error."]}], "exports": []}, {"name": "cdisc_rules_engine.models.validation_error_container", "documentation": [], "functions": [], "variables": [], "classes": [{"name": "cdisc_rules_engine.models.validation_error_container.ValidationErrorContainer", "bases": ["BaseValidationEntity"], "methods": [{"name": "cdisc_rules_engine.models.validation_error_container.ValidationErrorContainer.__init__", "asynchronous": false, "params": [{"name": "self", "type": null, "default": null}, {"name": "**params", "type": null, "default": null}], "returns": null, "documentation": []}, {"name": "cdisc_rules_engine.models.validation_error_container.ValidationErrorContainer.to_representation", "asynchronous": false, "params": [{"name": "self", "type": null, "default": null}], "returns": {"name": "dict", "xref": {"fqname": "functions.dict", "project": "--std--"}, "params": null}, "documentation": []}], "class_variables": [], "instance_variables": [], "inner_classes": [], "documentation": []}], "exports": []}, {"name": "cdisc_rules_engine.models.define", "documentation": [], "functions": [], "variables": [], "classes": [], "exports": [{"name": "cdisc_rules_engine.models.define.ValueLevelMetadata", "xref": {"fqname": "cdisc_rules_engine.models.define.value_level_metadata.ValueLevelMetadata", "project": null}}]}, {"name": "cdisc_rules_engine.models.actions", "documentation": [], "functions": [], "variables": [], "classes": [{"name": "cdisc_rules_engine.models.actions.COREActions", "bases": ["BaseActions"], "methods": [{"name": "cdisc_rules_engine.models.actions.COREActions.__init__", "asynchronous": false, "params": [{"name": "self", "type": null, "default": null}, {"name": "output_container", "type": {"name": "list", "xref": {"fqname": "functions.list", "project": "--std--"}, "params": null}, "default": null}, {"name": "variable", "type": {"name": "DatasetVariable", "xref": {"fqname": "cdisc_rules_engine.models.dataset_variable.DatasetVariable", "project": null}, "params": null}, "default": null}, {"name": "domain", "type": {"name": "str", "xref": {"fqname": "functions.str", "project": "--std--"}, "params": null}, "default": null}, {"name": "rule", "type": {"name": "dict", "xref": {"fqname": "functions.dict", "project": "--std--"}, "params": null}, "default": null}, {"name": "value_level_metadata", "type": {"name": "list", "xref": {"fqname": "functions.list", "project": "--std--"}, "params": null}, "default": "..."}], "returns": null, "documentation": []}, {"name": "cdisc_rules_engine.models.actions.COREActions.generate_record_message", "asynchronous": false, "params": [{"name": "self", "type": null, "default": null}, {"name": "message", "type": null, "default": null}, {"name": "target", "type": null, "default": "..."}], "returns": null, "documentation": []}, {"name": "cdisc_rules_engine.models.actions.COREActions.generate_dataset_error_objects", "asynchronous": false, "params": [{"name": "self", "type": null, "default": null}, {"name": "message", "type": {"name": "str", "xref": {"fqname": "functions.str", "project": "--std--"}, "params": null}, "default": null}, {"name": "results", "type": {"name": "pd.Series", "xref": {"fqname": "pandas.Series", "project": "pandas"}, "params": null}, "default": null}], "returns": null, "documentation": []}, {"name": "cdisc_rules_engine.models.actions.COREActions.generate_single_error", "asynchronous": false, "params": [{"name": "self", "type": null, "default": null}, {"name": "message", "type": null, "default": null}], "returns": null, "documentation": []}, {"name": "cdisc_rules_engine.models.actions.COREActions.generate_targeted_error_object", "asynchronous": false, "params": [{"name": "self", "type": null, "default": null}, {"name": "targets", "type": {"name": "Set", "xref": {"fqname": "typing.Set", "project": "--std--"}, "params": [{"name": "str", "xref": {"fqname": "functions.str", "project": "--std--"}, "params": null}]}, "default": null}, {"name": "data", "type": {"name": "pd.DataFrame", "xref": {"fqname": "pandas.DataFrame", "project": "pandas"}, "params": null}, "default": null}, {"name": "message", "type": {"name": "str", "xref": {"fqname": "functions.str", "project": "--std--"}, "params": null}, "default": null}], "returns": {"name": "ValidationErrorContainer", "xref": {"fqname": "cdisc_rules_engine.models.validation_error_container.ValidationErrorContainer", "project": null}, "params": null}, "documentation": ["Generates a targeted error object.\nReturn example:\n{\n    \"domain\": \"AE\",\n    \"variables\": [\"AESTDY\", \"DOMAIN\"],\n    \"errors\": [\n        {\n          \"row\": 0,\n          \"value\": {\"STUDYID\": \"Not in dataset\"},\n          \"uSubjId\": \"2\",\n          \"seq\": 1,\n        },\n        {\n          \"row\": 1,\n          \"value\": {\"AESTDY\": \"test\", \"DOMAIN\": \"test\"},\n          \"uSubjId\": 7,\n          \"seq\": 2,\n        },\n        {\n          \"row\": 9,\n          \"value\": {\"AESTDY\": \"test\", \"DOMAIN\": \"test\"},\n          \"uSubjId\": 12,\n          \"seq\": 10,\n        },\n    ],\n    \"message\": \"AESTDY and DOMAIN are equal to test\",\n}"]}, {"name": "cdisc_rules_engine.models.actions.COREActions._create_error_object", "asynchronous": false, "params": [{"name": "self", "type": null, "default": null}, {"name": "df_row", "type": {"name": "pd.Series", "xref": {"fqname": "pandas.Series", "project": "pandas"}, "params": null}, "default": null}, {"name": "data", "type": {"name": "pd.DataFrame", "xref": {"fqname": "pandas.DataFrame", "project": "pandas"}, "params": null}, "default": null}], "returns": {"name": "ValidationErrorEntity", "xref": {"fqname": "cdisc_rules_engine.models.validation_error_entity.ValidationErrorEntity", "project": null}, "params": null}, "documentation": []}, {"name": "cdisc_rules_engine.models.actions.COREActions.extract_target_names_from_value_level_metadata", "asynchronous": false, "params": [{"name": "self", "type": null, "default": null}], "returns": null, "documentation": []}, {"name": "cdisc_rules_engine.models.actions.COREActions._sequence_exists", "asynchronous": false, "params": [{"name": "sequence", "type": {"name": "pd.Series", "xref": {"fqname": "pandas.Series", "project": "pandas"}, "params": null}, "default": null}, {"name": "row_name", "type": {"name": "Hashable", "xref": {"fqname": "typing.Hashable", "project": "--std--"}, "params": null}, "default": null}], "returns": {"name": "bool", "xref": {"fqname": "functions.bool", "project": "--std--"}, "params": null}, "documentation": []}], "class_variables": [], "instance_variables": [], "inner_classes": [], "documentation": []}], "exports": []}, {"name": "cdisc_rules_engine.models.variable_metadata_container", "documentation": [], "functions": [], "variables": [], "classes": [{"name": "cdisc_rules_engine.models.variable_metadata_container.VariableMetadataContainer", "bases": ["RepresentationInterface"], "methods": [{"name": "cdisc_rules_engine.models.variable_metadata_container.VariableMetadataContainer.__init__", "asynchronous": false, "params": [{"name": "self", "type": null, "default": null}, {"name": "contents_metadata", "type": {"name": "dict", "xref": {"fqname": "functions.dict", "project": "--std--"}, "params": null}, "default": null}], "returns": null, "documentation": []}, {"name": "cdisc_rules_engine.models.variable_metadata_container.VariableMetadataContainer.to_representation", "asynchronous": false, "params": [{"name": "self", "type": null, "default": null}], "returns": {"name": "dict", "xref": {"fqname": "functions.dict", "project": "--std--"}, "params": null}, "documentation": []}], "class_variables": [], "instance_variables": [], "inner_classes": [], "documentation": []}], "exports": []}, {"name": "cdisc_rules_engine.models.dataset", "documentation": ["This module contains DB models related\nto dictionaries like WhoDrug, MedDra etc."], "functions": [], "variables": [], "classes": [], "exports": [{"name": "cdisc_rules_engine.models.dataset.DaskDataset", "xref": {"fqname": "cdisc_rules_engine.models.dataset.dask_dataset.DaskDataset", "project": null}}, {"name": "cdisc_rules_engine.models.dataset.DatasetInterface", "xref": {"fqname": "cdisc_rules_engine.models.dataset.dataset_interface.DatasetInterface", "project": null}}, {"name": "cdisc_rules_engine.models.dataset.PandasDataset", "xref": {"fqname": "cdisc_rules_engine.models.dataset.pandas_dataset.PandasDataset", "project": null}}]}, {"name": "cdisc_rules_engine.models.define.value_level_metadata", "documentation": [], "functions": [], "variables": [], "classes": [{"name": "cdisc_rules_engine.models.define.value_level_metadata.ValueLevelMetadata", "bases": [], "methods": [{"name": "cdisc_rules_engine.models.define.value_level_metadata.ValueLevelMetadata.__init__", "asynchronous": false, "params": [{"name": "self", "type": null, "default": null}], "returns": null, "documentation": []}, {"name": "cdisc_rules_engine.models.define.value_level_metadata.ValueLevelMetadata.from_where_clause_def", "asynchronous": false, "params": [{"name": "cls", "type": null, "default": null}, {"name": "where_clause", "type": null, "default": null}, {"name": "items", "type": null, "default": null}], "returns": null, "documentation": []}, {"name": "cdisc_rules_engine.models.define.value_level_metadata.ValueLevelMetadata.get_filter_function", "asynchronous": false, "params": [{"name": "self", "type": null, "default": null}], "returns": null, "documentation": []}, {"name": "cdisc_rules_engine.models.define.value_level_metadata.ValueLevelMetadata.get_type_check_function", "asynchronous": false, "params": [{"name": "self", "type": null, "default": null}], "returns": null, "documentation": []}, {"name": "cdisc_rules_engine.models.define.value_level_metadata.ValueLevelMetadata.get_length_check_function", "asynchronous": false, "params": [{"name": "self", "type": null, "default": null}], "returns": null, "documentation": []}, {"name": "cdisc_rules_engine.models.define.value_level_metadata.ValueLevelMetadata.less_than", "asynchronous": false, "params": [{"name": "self", "type": null, "default": null}], "returns": null, "documentation": []}, {"name": "cdisc_rules_engine.models.define.value_level_metadata.ValueLevelMetadata.greater_than", "asynchronous": false, "params": [{"name": "self", "type": null, "default": null}], "returns": null, "documentation": []}, {"name": "cdisc_rules_engine.models.define.value_level_metadata.ValueLevelMetadata.less_than_or_equal_to", "asynchronous": false, "params": [{"name": "self", "type": null, "default": null}], "returns": null, "documentation": []}, {"name": "cdisc_rules_engine.models.define.value_level_metadata.ValueLevelMetadata.greater_than_or_equal_to", "asynchronous": false, "params": [{"name": "self", "type": null, "default": null}], "returns": null, "documentation": []}, {"name": "cdisc_rules_engine.models.define.value_level_metadata.ValueLevelMetadata.equal_to", "asynchronous": false, "params": [{"name": "self", "type": null, "default": null}], "returns": null, "documentation": []}, {"name": "cdisc_rules_engine.models.define.value_level_metadata.ValueLevelMetadata.not_equal_to", "asynchronous": false, "params": [{"name": "self", "type": null, "default": null}], "returns": null, "documentation": []}, {"name": "cdisc_rules_engine.models.define.value_level_metadata.ValueLevelMetadata.is_in", "asynchronous": false, "params": [{"name": "self", "type": null, "default": null}], "returns": null, "documentation": []}, {"name": "cdisc_rules_engine.models.define.value_level_metadata.ValueLevelMetadata.is_not_in", "asynchronous": false, "params": [{"name": "self", "type": null, "default": null}], "returns": null, "documentation": []}, {"name": "cdisc_rules_engine.models.define.value_level_metadata.ValueLevelMetadata.is_integer", "asynchronous": false, "params": [{"name": "self", "type": null, "default": null}], "returns": null, "documentation": []}, {"name": "cdisc_rules_engine.models.define.value_level_metadata.ValueLevelMetadata.is_float", "asynchronous": false, "params": [{"name": "self", "type": null, "default": null}], "returns": null, "documentation": []}, {"name": "cdisc_rules_engine.models.define.value_level_metadata.ValueLevelMetadata.is_text", "asynchronous": false, "params": [{"name": "self", "type": null, "default": null}], "returns": null, "documentation": []}, {"name": "cdisc_rules_engine.models.define.value_level_metadata.ValueLevelMetadata.is_datetime", "asynchronous": false, "params": [{"name": "self", "type": null, "default": null}], "returns": null, "documentation": []}, {"name": "cdisc_rules_engine.models.define.value_level_metadata.ValueLevelMetadata.is_date", "asynchronous": false, "params": [{"name": "self", "type": null, "default": null}], "returns": null, "documentation": []}, {"name": "cdisc_rules_engine.models.define.value_level_metadata.ValueLevelMetadata.is_time", "asynchronous": false, "params": [{"name": "self", "type": null, "default": null}], "returns": null, "documentation": []}, {"name": "cdisc_rules_engine.models.define.value_level_metadata.ValueLevelMetadata.is_incomplete_datetime", "asynchronous": false, "params": [{"name": "self", "type": null, "default": null}], "returns": null, "documentation": []}, {"name": "cdisc_rules_engine.models.define.value_level_metadata.ValueLevelMetadata.is_partial_date", "asynchronous": false, "params": [{"name": "self", "type": null, "default": null}], "returns": null, "documentation": []}, {"name": "cdisc_rules_engine.models.define.value_level_metadata.ValueLevelMetadata.is_partial_time", "asynchronous": false, "params": [{"name": "self", "type": null, "default": null}], "returns": null, "documentation": []}, {"name": "cdisc_rules_engine.models.define.value_level_metadata.ValueLevelMetadata.is_partial_datetime", "asynchronous": false, "params": [{"name": "self", "type": null, "default": null}], "returns": null, "documentation": []}, {"name": "cdisc_rules_engine.models.define.value_level_metadata.ValueLevelMetadata.is_interval_datetime", "asynchronous": false, "params": [{"name": "self", "type": null, "default": null}], "returns": null, "documentation": []}, {"name": "cdisc_rules_engine.models.define.value_level_metadata.ValueLevelMetadata.is_duration_datetime", "asynchronous": false, "params": [{"name": "self", "type": null, "default": null}], "returns": null, "documentation": []}, {"name": "cdisc_rules_engine.models.define.value_level_metadata.ValueLevelMetadata._convert_to_datatype", "asynchronous": false, "params": [{"name": "self", "type": null, "default": null}, {"name": "target", "type": null, "default": null}, {"name": "value", "type": null, "default": null}], "returns": null, "documentation": []}, {"name": "cdisc_rules_engine.models.define.value_level_metadata.ValueLevelMetadata._convert_list_to_datatype", "asynchronous": false, "params": [{"name": "self", "type": null, "default": null}, {"name": "target_list", "type": null, "default": null}, {"name": "value", "type": null, "default": null}], "returns": null, "documentation": []}], "class_variables": [], "instance_variables": [], "inner_classes": [], "documentation": []}], "exports": []}, {"name": "cdisc_rules_engine.models.dataset.dataset_interface", "documentation": [], "functions": [], "variables": [], "classes": [{"name": "cdisc_rules_engine.models.dataset.dataset_interface.DatasetInterface", "bases": ["ABC"], "methods": [{"name": "cdisc_rules_engine.models.dataset.dataset_interface.DatasetInterface.data", "asynchronous": false, "params": [{"name": "self", "type": null, "default": null}], "returns": null, "documentation": ["Stores the underlying data for the dataset"]}, {"name": "cdisc_rules_engine.models.dataset.dataset_interface.DatasetInterface.empty", "asynchronous": false, "params": [{"name": "self", "type": null, "default": null}], "returns": null, "documentation": ["Returns whether or not the underlying dataframe is empty"]}, {"name": "cdisc_rules_engine.models.dataset.dataset_interface.DatasetInterface.columns", "asynchronous": false, "params": [{"name": "self", "type": null, "default": null}], "returns": null, "documentation": ["Stores the columns of the underlying dataset"]}, {"name": "cdisc_rules_engine.models.dataset.dataset_interface.DatasetInterface.from_dict", "asynchronous": false, "params": [{"name": "self", "type": null, "default": null}, {"name": "data", "type": {"name": "dict", "xref": {"fqname": "functions.dict", "project": "--std--"}, "params": null}, "default": null}, {"name": "**kwargs", "type": null, "default": null}], "returns": null, "documentation": ["Create the underlying dataset from provided dictionary data"]}, {"name": "cdisc_rules_engine.models.dataset.dataset_interface.DatasetInterface.from_records", "asynchronous": false, "params": [{"name": "self", "type": null, "default": null}, {"name": "data", "type": {"name": "List", "xref": {"fqname": "typing.List", "project": "--std--"}, "params": [{"name": "dict", "xref": {"fqname": "functions.dict", "project": "--std--"}, "params": null}]}, "default": null}, {"name": "**kwargs", "type": null, "default": null}], "returns": null, "documentation": ["Create the underlying dataset from provided list of records"]}, {"name": "cdisc_rules_engine.models.dataset.dataset_interface.DatasetInterface.get_series_values", "asynchronous": false, "params": [{"name": "cls", "type": null, "default": null}, {"name": "series", "type": null, "default": null}], "returns": {"name": "list", "xref": {"fqname": "functions.list", "project": "--std--"}, "params": null}, "documentation": ["Returns the values for a series."]}, {"name": "cdisc_rules_engine.models.dataset.dataset_interface.DatasetInterface.__getitem__", "asynchronous": false, "params": [{"name": "self", "type": null, "default": null}, {"name": "item", "type": {"name": "str", "xref": {"fqname": "functions.str", "project": "--std--"}, "params": null}, "default": null}], "returns": null, "documentation": ["Access dataset column by name"]}, {"name": "cdisc_rules_engine.models.dataset.dataset_interface.DatasetInterface.__setitem__", "asynchronous": false, "params": [{"name": "self", "type": null, "default": null}, {"name": "key", "type": {"name": "str", "xref": {"fqname": "functions.str", "project": "--std--"}, "params": null}, "default": null}, {"name": "data", "type": null, "default": null}], "returns": null, "documentation": ["Set value of a dataset column"]}, {"name": "cdisc_rules_engine.models.dataset.dataset_interface.DatasetInterface.__len__", "asynchronous": false, "params": [{"name": "self", "type": null, "default": null}], "returns": null, "documentation": ["Get length of dataset"]}, {"name": "cdisc_rules_engine.models.dataset.dataset_interface.DatasetInterface.__contains__", "asynchronous": false, "params": [{"name": "self", "type": null, "default": null}, {"name": "item", "type": {"name": "str", "xref": {"fqname": "functions.str", "project": "--std--"}, "params": null}, "default": null}], "returns": {"name": "bool", "xref": {"fqname": "functions.bool", "project": "--std--"}, "params": null}, "documentation": ["Return true if item is in dataset"]}, {"name": "cdisc_rules_engine.models.dataset.dataset_interface.DatasetInterface.get", "asynchronous": false, "params": [{"name": "self", "type": null, "default": null}, {"name": "column", "type": {"name": "str", "xref": {"fqname": "functions.str", "project": "--std--"}, "params": null}, "default": null}, {"name": "default", "type": null, "default": "..."}], "returns": null, "documentation": ["Return column if column is in dataset, else return default"]}, {"name": "cdisc_rules_engine.models.dataset.dataset_interface.DatasetInterface.groupby", "asynchronous": false, "params": [{"name": "self", "type": null, "default": null}, {"name": "by", "type": {"name": "List", "xref": {"fqname": "typing.List", "project": "--std--"}, "params": [{"name": "str", "xref": {"fqname": "functions.str", "project": "--std--"}, "params": null}]}, "default": null}, {"name": "**kwargs", "type": null, "default": null}], "returns": null, "documentation": ["Group dataframe by list of columns."]}, {"name": "cdisc_rules_engine.models.dataset.dataset_interface.DatasetInterface.concat", "asynchronous": false, "params": [{"name": "self", "type": null, "default": null}, {"name": "other", "type": {"name": "Union", "xref": {"fqname": "typing.Union", "project": "--std--"}, "params": [{"name": "DatasetInterface", "xref": {"fqname": "cdisc_rules_engine.models.dataset.dataset_interface.DatasetInterface", "project": null}, "params": null}, {"name": "List", "xref": {"fqname": "typing.List", "project": "--std--"}, "params": [{"name": "DatasetInterface", "xref": {"fqname": "cdisc_rules_engine.models.dataset.dataset_interface.DatasetInterface", "project": null}, "params": null}]}]}, "default": null}, {"name": "**kwargs", "type": null, "default": null}], "returns": null, "documentation": ["Concat two datasets"]}, {"name": "cdisc_rules_engine.models.dataset.dataset_interface.DatasetInterface.merge", "asynchronous": false, "params": [{"name": "self", "type": null, "default": null}, {"name": "other", "type": {"name": "DatasetInterface", "xref": {"fqname": "cdisc_rules_engine.models.dataset.dataset_interface.DatasetInterface", "project": null}, "params": null}, "default": null}, {"name": "**kwargs", "type": null, "default": null}], "returns": null, "documentation": ["merge two datasets"]}, {"name": "cdisc_rules_engine.models.dataset.dataset_interface.DatasetInterface.apply", "asynchronous": false, "params": [{"name": "self", "type": null, "default": null}, {"name": "func", "type": null, "default": null}, {"name": "**kwargs", "type": null, "default": null}], "returns": null, "documentation": ["Apply a function to a dataset"]}, {"name": "cdisc_rules_engine.models.dataset.dataset_interface.DatasetInterface.iterrows", "asynchronous": false, "params": [{"name": "self", "type": null, "default": null}], "returns": null, "documentation": ["Return iterator over all dataset rows"]}, {"name": "cdisc_rules_engine.models.dataset.dataset_interface.DatasetInterface.is_series", "asynchronous": false, "params": [{"name": "cls", "type": null, "default": null}, {"name": "data", "type": null, "default": null}], "returns": {"name": "bool", "xref": {"fqname": "functions.bool", "project": "--std--"}, "params": null}, "documentation": ["Return true if the data is a series compatible with the underlying dataset"]}, {"name": "cdisc_rules_engine.models.dataset.dataset_interface.DatasetInterface.convert_to_series", "asynchronous": false, "params": [{"name": "self", "type": null, "default": null}, {"name": "data", "type": null, "default": null}], "returns": null, "documentation": ["Converts list like data to a series corresponding with the underlying dataset"]}, {"name": "cdisc_rules_engine.models.dataset.dataset_interface.DatasetInterface.get_series_from_value", "asynchronous": false, "params": [{"name": "self", "type": null, "default": null}, {"name": "value", "type": null, "default": null}], "returns": null, "documentation": ["Create a series of a single value"]}, {"name": "cdisc_rules_engine.models.dataset.dataset_interface.DatasetInterface.rename", "asynchronous": false, "params": [{"name": "self", "type": null, "default": null}, {"name": "index", "type": null, "default": "..."}, {"name": "columns", "type": null, "default": "..."}, {"name": "inplace", "type": null, "default": "..."}], "returns": null, "documentation": ["Rename columns or index labels."]}, {"name": "cdisc_rules_engine.models.dataset.dataset_interface.DatasetInterface.drop", "asynchronous": false, "params": [{"name": "self", "type": null, "default": null}, {"name": "labels", "type": null, "default": "..."}, {"name": "axis", "type": null, "default": "..."}, {"name": "columns", "type": null, "default": "..."}, {"name": "errors", "type": null, "default": "..."}], "returns": null, "documentation": ["Drop specified labels from rows or columns."]}, {"name": "cdisc_rules_engine.models.dataset.dataset_interface.DatasetInterface.melt", "asynchronous": false, "params": [{"name": "self", "type": null, "default": null}, {"name": "id_vars", "type": null, "default": "..."}, {"name": "value_vars", "type": null, "default": "..."}, {"name": "var_name", "type": null, "default": "..."}, {"name": "value_name", "type": null, "default": "..."}, {"name": "col_level", "type": null, "default": "..."}], "returns": null, "documentation": ["Unpivots a DataFrame from wide format to long format,\noptionally leaving identifier variables set."]}, {"name": "cdisc_rules_engine.models.dataset.dataset_interface.DatasetInterface.set_index", "asynchronous": false, "params": [{"name": "self", "type": null, "default": null}, {"name": "keys", "type": null, "default": null}, {"name": "**kwargs", "type": null, "default": null}], "returns": null, "documentation": ["Wrapper for DataFrame set_index method"]}, {"name": "cdisc_rules_engine.models.dataset.dataset_interface.DatasetInterface.filter", "asynchronous": false, "params": [{"name": "self", "type": null, "default": null}, {"name": "**kwargs", "type": null, "default": null}], "returns": null, "documentation": ["Wrapper for DataFrame filter method"]}, {"name": "cdisc_rules_engine.models.dataset.dataset_interface.DatasetInterface.len", "asynchronous": false, "params": [{"name": "self", "type": null, "default": null}], "returns": {"name": "int", "xref": {"fqname": "functions.int", "project": "--std--"}, "params": null}, "documentation": ["Return the length of the dataset"]}, {"name": "cdisc_rules_engine.models.dataset.dataset_interface.DatasetInterface.copy", "asynchronous": false, "params": [{"name": "self", "type": null, "default": null}], "returns": {"name": "DatasetInterface", "xref": {"fqname": "cdisc_rules_engine.models.dataset.dataset_interface.DatasetInterface", "project": null}, "params": null}, "documentation": ["Return a new instance of the dataset with the same data"]}, {"name": "cdisc_rules_engine.models.dataset.dataset_interface.DatasetInterface.get_error_rows", "asynchronous": false, "params": [{"name": "self", "type": null, "default": null}, {"name": "results", "type": null, "default": null}], "returns": null, "documentation": ["Returns a pandas dataframe with all errors found in the dataset. Limited to 1000"]}, {"name": "cdisc_rules_engine.models.dataset.dataset_interface.DatasetInterface.equals", "asynchronous": false, "params": [{"name": "self", "type": null, "default": null}], "returns": {"name": "bool", "xref": {"fqname": "functions.bool", "project": "--std--"}, "params": null}, "documentation": ["Determine if two datasets are equal"]}, {"name": "cdisc_rules_engine.models.dataset.dataset_interface.DatasetInterface.where", "asynchronous": false, "params": [{"name": "cond", "type": null, "default": null}, {"name": "other", "type": null, "default": null}, {"name": "**kwargs", "type": null, "default": null}], "returns": null, "documentation": ["Wrapper for dataframe where function"]}, {"name": "cdisc_rules_engine.models.dataset.dataset_interface.DatasetInterface.cartesian_product", "asynchronous": false, "params": [{"name": "cls", "type": null, "default": null}, {"name": "left", "type": null, "default": null}, {"name": "right", "type": null, "default": null}], "returns": null, "documentation": ["Return the cartesian product of two dataframes"]}, {"name": "cdisc_rules_engine.models.dataset.dataset_interface.DatasetInterface.sort_values", "asynchronous": false, "params": [{"name": "self", "type": null, "default": null}, {"name": "by", "type": null, "default": null}, {"name": "**kwargs", "type": null, "default": null}], "returns": null, "documentation": ["Sort the dataframe by the provided columns"]}, {"name": "cdisc_rules_engine.models.dataset.dataset_interface.DatasetInterface.is_column_sorted_within", "asynchronous": false, "params": [{"name": "self", "type": null, "default": null}, {"name": "group", "type": null, "default": null}, {"name": "column", "type": null, "default": null}], "returns": null, "documentation": ["Returns true if the column is sorted within each grouping otherwise false"]}, {"name": "cdisc_rules_engine.models.dataset.dataset_interface.DatasetInterface.min", "asynchronous": false, "params": [{"name": "self", "type": null, "default": null}, {"name": "*args", "type": null, "default": null}, {"name": "**kwargs", "type": null, "default": null}], "returns": null, "documentation": ["Return the minimum of the values over the requested axis."]}, {"name": "cdisc_rules_engine.models.dataset.dataset_interface.DatasetInterface.reset_index", "asynchronous": false, "params": [{"name": "self", "type": null, "default": null}, {"name": "drop", "type": null, "default": "..."}, {"name": "**kwargs", "type": null, "default": null}], "returns": null, "documentation": ["Reset the index of the dataset."]}, {"name": "cdisc_rules_engine.models.dataset.dataset_interface.DatasetInterface.fillna", "asynchronous": false, "params": [{"name": "self", "type": null, "default": null}, {"name": "value", "type": null, "default": "..."}, {"name": "method", "type": null, "default": "..."}, {"name": "axis", "type": null, "default": "..."}, {"name": "inplace", "type": null, "default": "..."}, {"name": "limit", "type": null, "default": "..."}, {"name": "downcast", "type": null, "default": "..."}], "returns": null, "documentation": ["Fill NA/NaN values using the specified method."]}, {"name": "cdisc_rules_engine.models.dataset.dataset_interface.DatasetInterface.get_grouped_size", "asynchronous": false, "params": [{"name": "self", "type": null, "default": null}, {"name": "by", "type": null, "default": null}, {"name": "**kwargs", "type": null, "default": null}], "returns": null, "documentation": ["Returns a dataframe containing the sizes of each group in\nthe dataframe."]}], "class_variables": [], "instance_variables": [], "inner_classes": [], "documentation": []}], "exports": []}, {"name": "cdisc_rules_engine.models.dataset.pandas_dataset", "documentation": [], "functions": [], "variables": [], "classes": [{"name": "cdisc_rules_engine.models.dataset.pandas_dataset.PandasDataset", "bases": ["DatasetInterface"], "methods": [{"name": "cdisc_rules_engine.models.dataset.pandas_dataset.PandasDataset.__init__", "asynchronous": false, "params": [{"name": "self", "type": null, "default": null}, {"name": "data", "type": {"name": "pd.DataFrame", "xref": {"fqname": "pandas.DataFrame", "project": "pandas"}, "params": null}, "default": "..."}, {"name": "columns", "type": null, "default": "..."}], "returns": null, "documentation": []}, {"name": "cdisc_rules_engine.models.dataset.pandas_dataset.PandasDataset.data", "asynchronous": false, "params": [{"name": "self", "type": null, "default": null}], "returns": null, "documentation": []}, {"name": "cdisc_rules_engine.models.dataset.pandas_dataset.PandasDataset.data", "asynchronous": false, "params": [{"name": "self", "type": null, "default": null}, {"name": "data", "type": null, "default": null}], "returns": null, "documentation": []}, {"name": "cdisc_rules_engine.models.dataset.pandas_dataset.PandasDataset.columns", "asynchronous": false, "params": [{"name": "self", "type": null, "default": null}], "returns": null, "documentation": []}, {"name": "cdisc_rules_engine.models.dataset.pandas_dataset.PandasDataset.columns", "asynchronous": false, "params": [{"name": "self", "type": null, "default": null}, {"name": "columns", "type": null, "default": null}], "returns": null, "documentation": []}, {"name": "cdisc_rules_engine.models.dataset.pandas_dataset.PandasDataset.index", "asynchronous": false, "params": [{"name": "self", "type": null, "default": null}], "returns": null, "documentation": []}, {"name": "cdisc_rules_engine.models.dataset.pandas_dataset.PandasDataset.groups", "asynchronous": false, "params": [{"name": "self", "type": null, "default": null}], "returns": null, "documentation": []}, {"name": "cdisc_rules_engine.models.dataset.pandas_dataset.PandasDataset.empty", "asynchronous": false, "params": [{"name": "self", "type": null, "default": null}], "returns": null, "documentation": []}, {"name": "cdisc_rules_engine.models.dataset.pandas_dataset.PandasDataset.loc", "asynchronous": false, "params": [{"name": "self", "type": null, "default": null}], "returns": null, "documentation": []}, {"name": "cdisc_rules_engine.models.dataset.pandas_dataset.PandasDataset.at", "asynchronous": false, "params": [{"name": "self", "type": null, "default": null}], "returns": null, "documentation": []}, {"name": "cdisc_rules_engine.models.dataset.pandas_dataset.PandasDataset.from_dict", "asynchronous": false, "params": [{"name": "cls", "type": null, "default": null}, {"name": "data", "type": {"name": "dict", "xref": {"fqname": "functions.dict", "project": "--std--"}, "params": null}, "default": null}, {"name": "**kwargs", "type": null, "default": null}], "returns": null, "documentation": []}, {"name": "cdisc_rules_engine.models.dataset.pandas_dataset.PandasDataset.from_records", "asynchronous": false, "params": [{"name": "cls", "type": null, "default": null}, {"name": "data", "type": {"name": "List", "xref": {"fqname": "typing.List", "project": "--std--"}, "params": [{"name": "dict", "xref": {"fqname": "functions.dict", "project": "--std--"}, "params": null}]}, "default": null}, {"name": "**kwargs", "type": null, "default": null}], "returns": null, "documentation": []}, {"name": "cdisc_rules_engine.models.dataset.pandas_dataset.PandasDataset.__getitem__", "asynchronous": false, "params": [{"name": "self", "type": null, "default": null}, {"name": "item", "type": {"name": "Union", "xref": {"fqname": "typing.Union", "project": "--std--"}, "params": [{"name": "str", "xref": {"fqname": "functions.str", "project": "--std--"}, "params": null}, {"name": "List", "xref": {"fqname": "typing.List", "project": "--std--"}, "params": [{"name": "str", "xref": {"fqname": "functions.str", "project": "--std--"}, "params": null}]}]}, "default": null}], "returns": {"name": "Union", "xref": {"fqname": "typing.Union", "project": "--std--"}, "params": [{"name": "pd.Series", "xref": {"fqname": "pandas.Series", "project": "pandas"}, "params": null}, {"name": "pd.DataFrame", "xref": {"fqname": "pandas.DataFrame", "project": "pandas"}, "params": null}]}, "documentation": []}, {"name": "cdisc_rules_engine.models.dataset.pandas_dataset.PandasDataset.__setitem__", "asynchronous": false, "params": [{"name": "self", "type": null, "default": null}, {"name": "key", "type": null, "default": null}, {"name": "value", "type": {"name": "pd.Series", "xref": {"fqname": "pandas.Series", "project": "pandas"}, "params": null}, "default": null}], "returns": null, "documentation": []}, {"name": "cdisc_rules_engine.models.dataset.pandas_dataset.PandasDataset.__len__", "asynchronous": false, "params": [{"name": "self", "type": null, "default": null}], "returns": null, "documentation": []}, {"name": "cdisc_rules_engine.models.dataset.pandas_dataset.PandasDataset.__contains__", "asynchronous": false, "params": [{"name": "self", "type": null, "default": null}, {"name": "item", "type": {"name": "str", "xref": {"fqname": "functions.str", "project": "--std--"}, "params": null}, "default": null}], "returns": {"name": "bool", "xref": {"fqname": "functions.bool", "project": "--std--"}, "params": null}, "documentation": []}, {"name": "cdisc_rules_engine.models.dataset.pandas_dataset.PandasDataset.get", "asynchronous": false, "params": [{"name": "self", "type": null, "default": null}, {"name": "target", "type": {"name": "Union", "xref": {"fqname": "typing.Union", "project": "--std--"}, "params": [{"name": "str", "xref": {"fqname": "functions.str", "project": "--std--"}, "params": null}, {"name": "List", "xref": {"fqname": "typing.List", "project": "--std--"}, "params": [{"name": "str", "xref": {"fqname": "functions.str", "project": "--std--"}, "params": null}]}]}, "default": null}, {"name": "default", "type": null, "default": "..."}], "returns": null, "documentation": []}, {"name": "cdisc_rules_engine.models.dataset.pandas_dataset.PandasDataset.groupby", "asynchronous": false, "params": [{"name": "self", "type": null, "default": null}, {"name": "by", "type": {"name": "List", "xref": {"fqname": "typing.List", "project": "--std--"}, "params": [{"name": "str", "xref": {"fqname": "functions.str", "project": "--std--"}, "params": null}]}, "default": null}, {"name": "**kwargs", "type": null, "default": null}], "returns": null, "documentation": []}, {"name": "cdisc_rules_engine.models.dataset.pandas_dataset.PandasDataset.get_grouped_size", "asynchronous": false, "params": [{"name": "self", "type": null, "default": null}, {"name": "by", "type": null, "default": null}, {"name": "**kwargs", "type": null, "default": null}], "returns": null, "documentation": []}, {"name": "cdisc_rules_engine.models.dataset.pandas_dataset.PandasDataset.is_column_sorted_within", "asynchronous": false, "params": [{"name": "self", "type": null, "default": null}, {"name": "group", "type": null, "default": null}, {"name": "column", "type": null, "default": null}], "returns": null, "documentation": []}, {"name": "cdisc_rules_engine.models.dataset.pandas_dataset.PandasDataset.concat", "asynchronous": false, "params": [{"name": "self", "type": null, "default": null}, {"name": "other", "type": {"name": "Union", "xref": {"fqname": "typing.Union", "project": "--std--"}, "params": [{"name": "DatasetInterface", "xref": {"fqname": "cdisc_rules_engine.models.dataset.dataset_interface.DatasetInterface", "project": null}, "params": null}, {"name": "List", "xref": {"fqname": "typing.List", "project": "--std--"}, "params": [{"name": "DatasetInterface", "xref": {"fqname": "cdisc_rules_engine.models.dataset.dataset_interface.DatasetInterface", "project": null}, "params": null}]}]}, "default": null}, {"name": "**kwargs", "type": null, "default": null}], "returns": null, "documentation": []}, {"name": "cdisc_rules_engine.models.dataset.pandas_dataset.PandasDataset.merge", "asynchronous": false, "params": [{"name": "self", "type": null, "default": null}, {"name": "other", "type": {"name": "DatasetInterface", "xref": {"fqname": "cdisc_rules_engine.models.dataset.dataset_interface.DatasetInterface", "project": null}, "params": null}, "default": null}, {"name": "**kwargs", "type": null, "default": null}], "returns": null, "documentation": []}, {"name": "cdisc_rules_engine.models.dataset.pandas_dataset.PandasDataset.apply", "asynchronous": false, "params": [{"name": "self", "type": null, "default": null}, {"name": "func", "type": null, "default": null}, {"name": "**kwargs", "type": null, "default": null}], "returns": null, "documentation": []}, {"name": "cdisc_rules_engine.models.dataset.pandas_dataset.PandasDataset.iterrows", "asynchronous": false, "params": [{"name": "self", "type": null, "default": null}], "returns": null, "documentation": []}, {"name": "cdisc_rules_engine.models.dataset.pandas_dataset.PandasDataset.is_series", "asynchronous": false, "params": [{"name": "cls", "type": null, "default": null}, {"name": "data", "type": null, "default": null}], "returns": {"name": "bool", "xref": {"fqname": "functions.bool", "project": "--std--"}, "params": null}, "documentation": []}, {"name": "cdisc_rules_engine.models.dataset.pandas_dataset.PandasDataset.get_series_values", "asynchronous": false, "params": [{"name": "cls", "type": null, "default": null}, {"name": "series", "type": null, "default": null}], "returns": {"name": "list", "xref": {"fqname": "functions.list", "project": "--std--"}, "params": null}, "documentation": []}, {"name": "cdisc_rules_engine.models.dataset.pandas_dataset.PandasDataset.rename", "asynchronous": false, "params": [{"name": "self", "type": null, "default": null}, {"name": "index", "type": null, "default": "..."}, {"name": "columns", "type": null, "default": "..."}, {"name": "inplace", "type": null, "default": "..."}], "returns": null, "documentation": []}, {"name": "cdisc_rules_engine.models.dataset.pandas_dataset.PandasDataset.drop", "asynchronous": false, "params": [{"name": "self", "type": null, "default": null}, {"name": "labels", "type": null, "default": "..."}, {"name": "axis", "type": null, "default": "..."}, {"name": "columns", "type": null, "default": "..."}, {"name": "errors", "type": null, "default": "..."}], "returns": null, "documentation": ["Drop specified labels from rows or columns."]}, {"name": "cdisc_rules_engine.models.dataset.pandas_dataset.PandasDataset.melt", "asynchronous": false, "params": [{"name": "self", "type": null, "default": null}, {"name": "id_vars", "type": null, "default": "..."}, {"name": "value_vars", "type": null, "default": "..."}, {"name": "var_name", "type": null, "default": "..."}, {"name": "value_name", "type": null, "default": "..."}, {"name": "col_level", "type": null, "default": "..."}], "returns": null, "documentation": ["Unpivots a DataFrame from wide format to long format,\noptionally leaving identifier variables set."]}, {"name": "cdisc_rules_engine.models.dataset.pandas_dataset.PandasDataset.set_index", "asynchronous": false, "params": [{"name": "self", "type": null, "default": null}, {"name": "keys", "type": null, "default": null}, {"name": "**kwargs", "type": null, "default": null}], "returns": null, "documentation": []}, {"name": "cdisc_rules_engine.models.dataset.pandas_dataset.PandasDataset.filter", "asynchronous": false, "params": [{"name": "self", "type": null, "default": null}, {"name": "**kwargs", "type": null, "default": null}], "returns": null, "documentation": []}, {"name": "cdisc_rules_engine.models.dataset.pandas_dataset.PandasDataset.convert_to_series", "asynchronous": false, "params": [{"name": "self", "type": null, "default": null}, {"name": "result", "type": null, "default": null}], "returns": null, "documentation": []}, {"name": "cdisc_rules_engine.models.dataset.pandas_dataset.PandasDataset.get_series_from_value", "asynchronous": false, "params": [{"name": "self", "type": null, "default": null}, {"name": "result", "type": null, "default": null}], "returns": null, "documentation": []}, {"name": "cdisc_rules_engine.models.dataset.pandas_dataset.PandasDataset._remove_invalid_kwargs", "asynchronous": false, "params": [{"name": "self", "type": null, "default": null}, {"name": "invalid_args", "type": null, "default": null}, {"name": "kwargs", "type": null, "default": null}], "returns": {"name": "dict", "xref": {"fqname": "functions.dict", "project": "--std--"}, "params": null}, "documentation": []}, {"name": "cdisc_rules_engine.models.dataset.pandas_dataset.PandasDataset.len", "asynchronous": false, "params": [{"name": "self", "type": null, "default": null}], "returns": {"name": "int", "xref": {"fqname": "functions.int", "project": "--std--"}, "params": null}, "documentation": []}, {"name": "cdisc_rules_engine.models.dataset.pandas_dataset.PandasDataset.size", "asynchronous": false, "params": [{"name": "self", "type": null, "default": null}], "returns": {"name": "int", "xref": {"fqname": "functions.int", "project": "--std--"}, "params": null}, "documentation": []}, {"name": "cdisc_rules_engine.models.dataset.pandas_dataset.PandasDataset.copy", "asynchronous": false, "params": [{"name": "self", "type": null, "default": null}], "returns": null, "documentation": []}, {"name": "cdisc_rules_engine.models.dataset.pandas_dataset.PandasDataset.equals", "asynchronous": false, "params": [{"name": "self", "type": null, "default": null}, {"name": "other_dataset", "type": {"name": "DatasetInterface", "xref": {"fqname": "cdisc_rules_engine.models.dataset.dataset_interface.DatasetInterface", "project": null}, "params": null}, "default": null}], "returns": null, "documentation": []}, {"name": "cdisc_rules_engine.models.dataset.pandas_dataset.PandasDataset.get_error_rows", "asynchronous": false, "params": [{"name": "self", "type": null, "default": null}, {"name": "results", "type": null, "default": null}], "returns": {"name": "pd.Dataframe", "xref": {"fqname": "pandas.Dataframe", "project": "pandas"}, "params": null}, "documentation": []}, {"name": "cdisc_rules_engine.models.dataset.pandas_dataset.PandasDataset.where", "asynchronous": false, "params": [{"name": "self", "type": null, "default": null}, {"name": "cond", "type": null, "default": null}, {"name": "other", "type": null, "default": null}, {"name": "**kwargs", "type": null, "default": null}], "returns": null, "documentation": ["Wrapper for dataframe where function"]}, {"name": "cdisc_rules_engine.models.dataset.pandas_dataset.PandasDataset.cartesian_product", "asynchronous": false, "params": [{"name": "cls", "type": null, "default": null}, {"name": "left", "type": null, "default": null}, {"name": "right", "type": null, "default": null}], "returns": null, "documentation": ["Return the cartesian product of two dataframes"]}, {"name": "cdisc_rules_engine.models.dataset.pandas_dataset.PandasDataset.sort_values", "asynchronous": false, "params": [{"name": "self", "type": null, "default": null}, {"name": "by", "type": {"name": "Union", "xref": {"fqname": "typing.Union", "project": "--std--"}, "params": [{"name": "str", "xref": {"fqname": "functions.str", "project": "--std--"}, "params": null}, {"name": "list", "xref": {"fqname": "functions.list", "project": "--std--"}, "params": [{"name": "str", "xref": {"fqname": "functions.str", "project": "--std--"}, "params": null}]}]}, "default": null}, {"name": "**kwargs", "type": null, "default": null}], "returns": {"name": "pd.Dataframe", "xref": {"fqname": "pandas.Dataframe", "project": "pandas"}, "params": null}, "documentation": ["Sort the underlying dataframe and return a raw dataframe."]}, {"name": "cdisc_rules_engine.models.dataset.pandas_dataset.PandasDataset.dropna", "asynchronous": false, "params": [{"name": "self", "type": null, "default": null}, {"name": "inplace", "type": null, "default": "..."}, {"name": "**kwargs", "type": null, "default": null}], "returns": null, "documentation": []}, {"name": "cdisc_rules_engine.models.dataset.pandas_dataset.PandasDataset.drop_duplicates", "asynchronous": false, "params": [{"name": "self", "type": null, "default": null}, {"name": "subset", "type": null, "default": "..."}, {"name": "keep", "type": null, "default": "..."}, {"name": "inplace", "type": null, "default": "..."}, {"name": "**kwargs", "type": null, "default": null}], "returns": null, "documentation": ["Drop duplicate rows from the dataset."]}, {"name": "cdisc_rules_engine.models.dataset.pandas_dataset.PandasDataset.replace", "asynchronous": false, "params": [{"name": "self", "type": null, "default": null}, {"name": "to_replace", "type": null, "default": null}, {"name": "value", "type": null, "default": null}, {"name": "**kwargs", "type": null, "default": null}], "returns": null, "documentation": []}, {"name": "cdisc_rules_engine.models.dataset.pandas_dataset.PandasDataset.astype", "asynchronous": false, "params": [{"name": "self", "type": null, "default": null}, {"name": "dtype", "type": null, "default": null}, {"name": "**kwargs", "type": null, "default": null}], "returns": null, "documentation": []}, {"name": "cdisc_rules_engine.models.dataset.pandas_dataset.PandasDataset.min", "asynchronous": false, "params": [{"name": "self", "type": null, "default": null}, {"name": "*args", "type": null, "default": null}, {"name": "**kwargs", "type": null, "default": null}], "returns": null, "documentation": []}, {"name": "cdisc_rules_engine.models.dataset.pandas_dataset.PandasDataset.reset_index", "asynchronous": false, "params": [{"name": "self", "type": null, "default": null}, {"name": "drop", "type": null, "default": "..."}, {"name": "**kwargs", "type": null, "default": null}], "returns": null, "documentation": ["Reset the index of the dataset."]}, {"name": "cdisc_rules_engine.models.dataset.pandas_dataset.PandasDataset.fillna", "asynchronous": false, "params": [{"name": "self", "type": null, "default": null}, {"name": "value", "type": null, "default": "..."}, {"name": "method", "type": null, "default": "..."}, {"name": "axis", "type": null, "default": "..."}, {"name": "inplace", "type": null, "default": "..."}, {"name": "limit", "type": null, "default": "..."}, {"name": "downcast", "type": null, "default": "..."}], "returns": null, "documentation": ["Fill NA/NaN values using the specified method."]}], "class_variables": [], "instance_variables": [], "inner_classes": [], "documentation": []}], "exports": []}, {"name": "cdisc_rules_engine.models.validation_args", "documentation": [], "functions": [], "variables": [{"name": "cdisc_rules_engine.models.validation_args.Validation_args", "type": null, "documentation": []}], "classes": [], "exports": []}, {"name": "cdisc_rules_engine.models.validation_error_entity", "documentation": [], "functions": [], "variables": [], "classes": [{"name": "cdisc_rules_engine.models.validation_error_entity.ValidationErrorEntity", "bases": ["BaseValidationEntity"], "methods": [{"name": "cdisc_rules_engine.models.validation_error_entity.ValidationErrorEntity.__init__", "asynchronous": false, "params": [{"name": "self", "type": null, "default": null}, {"name": "value", "type": {"name": "dict", "xref": {"fqname": "functions.dict", "project": "--std--"}, "params": null}, "default": null}, {"name": "row", "type": {"name": "int", "xref": {"fqname": "functions.int", "project": "--std--"}, "params": null}, "default": "..."}, {"name": "usubjid", "type": {"name": "str", "xref": {"fqname": "functions.str", "project": "--std--"}, "params": null}, "default": "..."}, {"name": "sequence", "type": {"name": "int", "xref": {"fqname": "functions.int", "project": "--std--"}, "params": null}, "default": "..."}], "returns": null, "documentation": []}, {"name": "cdisc_rules_engine.models.validation_error_entity.ValidationErrorEntity._format_values", "asynchronous": false, "params": [{"name": "self", "type": null, "default": null}], "returns": {"name": "dict", "xref": {"fqname": "functions.dict", "project": "--std--"}, "params": null}, "documentation": ["Converts values to json serializable dict"]}, {"name": "cdisc_rules_engine.models.validation_error_entity.ValidationErrorEntity.to_representation", "asynchronous": false, "params": [{"name": "self", "type": null, "default": null}], "returns": {"name": "dict", "xref": {"fqname": "functions.dict", "project": "--std--"}, "params": null}, "documentation": []}], "class_variables": [], "instance_variables": [], "inner_classes": [], "documentation": ["The entity describes an error that been flagged because\na dataset violates a rule in a certain row."]}], "exports": []}, {"name": "cdisc_rules_engine.models.library_metadata_container", "documentation": [], "functions": [], "variables": [], "classes": [{"name": "cdisc_rules_engine.models.library_metadata_container.LibraryMetadataContainer", "bases": [], "methods": [{"name": "cdisc_rules_engine.models.library_metadata_container.LibraryMetadataContainer.__init__", "asynchronous": false, "params": [{"name": "self", "type": null, "default": null}, {"name": "standard_metadata", "type": null, "default": "..."}, {"name": "model_metadata", "type": null, "default": "..."}, {"name": "ct_package_metadata", "type": null, "default": "..."}, {"name": "variable_codelist_map", "type": null, "default": "..."}, {"name": "variables_metadata", "type": null, "default": "..."}, {"name": "published_ct_packages", "type": null, "default": "..."}], "returns": null, "documentation": []}, {"name": "cdisc_rules_engine.models.library_metadata_container.LibraryMetadataContainer.standard_metadata", "asynchronous": false, "params": [{"name": "self", "type": null, "default": null}], "returns": null, "documentation": []}, {"name": "cdisc_rules_engine.models.library_metadata_container.LibraryMetadataContainer.standard_metadata", "asynchronous": false, "params": [{"name": "self", "type": null, "default": null}, {"name": "value", "type": null, "default": null}], "returns": null, "documentation": []}, {"name": "cdisc_rules_engine.models.library_metadata_container.LibraryMetadataContainer.variable_codelist_map", "asynchronous": false, "params": [{"name": "self", "type": null, "default": null}], "returns": null, "documentation": []}, {"name": "cdisc_rules_engine.models.library_metadata_container.LibraryMetadataContainer.variable_codelist_map", "asynchronous": false, "params": [{"name": "self", "type": null, "default": null}, {"name": "value", "type": null, "default": null}], "returns": null, "documentation": []}, {"name": "cdisc_rules_engine.models.library_metadata_container.LibraryMetadataContainer.variables_metadata", "asynchronous": false, "params": [{"name": "self", "type": null, "default": null}], "returns": null, "documentation": []}, {"name": "cdisc_rules_engine.models.library_metadata_container.LibraryMetadataContainer.variables_metadata", "asynchronous": false, "params": [{"name": "self", "type": null, "default": null}, {"name": "value", "type": null, "default": null}], "returns": null, "documentation": []}, {"name": "cdisc_rules_engine.models.library_metadata_container.LibraryMetadataContainer.model_metadata", "asynchronous": false, "params": [{"name": "self", "type": null, "default": null}], "returns": null, "documentation": []}, {"name": "cdisc_rules_engine.models.library_metadata_container.LibraryMetadataContainer.model_metadata", "asynchronous": false, "params": [{"name": "self", "type": null, "default": null}, {"name": "value", "type": null, "default": null}], "returns": null, "documentation": []}, {"name": "cdisc_rules_engine.models.library_metadata_container.LibraryMetadataContainer.published_ct_packages", "asynchronous": false, "params": [{"name": "self", "type": null, "default": null}], "returns": null, "documentation": []}, {"name": "cdisc_rules_engine.models.library_metadata_container.LibraryMetadataContainer.get_ct_package_metadata", "asynchronous": false, "params": [{"name": "self", "type": null, "default": null}, {"name": "key", "type": null, "default": null}], "returns": null, "documentation": []}, {"name": "cdisc_rules_engine.models.library_metadata_container.LibraryMetadataContainer.get_all_ct_package_metadata", "asynchronous": false, "params": [{"name": "self", "type": null, "default": null}], "returns": null, "documentation": []}, {"name": "cdisc_rules_engine.models.library_metadata_container.LibraryMetadataContainer.set_ct_package_metadata", "asynchronous": false, "params": [{"name": "self", "type": null, "default": null}, {"name": "key", "type": null, "default": null}, {"name": "value", "type": null, "default": null}], "returns": null, "documentation": []}], "class_variables": [], "instance_variables": [], "inner_classes": [], "documentation": []}], "exports": []}, {"name": "cdisc_rules_engine.models", "documentation": [], "functions": [], "variables": [], "classes": [], "exports": []}, {"name": "cdisc_rules_engine.models.test_args", "documentation": [], "functions": [], "variables": [{"name": "cdisc_rules_engine.models.test_args.TestArgs", "type": null, "documentation": []}], "classes": [], "exports": []}, {"name": "cdisc_rules_engine.models.rule_validation_result", "documentation": [], "functions": [], "variables": [], "classes": [{"name": "cdisc_rules_engine.models.rule_validation_result.RuleValidationResult", "bases": ["RepresentationInterface"], "methods": [{"name": "cdisc_rules_engine.models.rule_validation_result.RuleValidationResult.__init__", "asynchronous": false, "params": [{"name": "self", "type": null, "default": null}, {"name": "rule", "type": {"name": "Rule", "xref": {"fqname": "cdisc_rules_engine.models.rule.Rule", "project": null}, "params": null}, "default": null}, {"name": "results", "type": {"name": "List", "xref": {"fqname": "typing.List", "project": "--std--"}, "params": [{"name": "Union", "xref": {"fqname": "typing.Union", "project": "--std--"}, "params": [{"name": "dict", "xref": {"fqname": "functions.dict", "project": "--std--"}, "params": null}, {"name": "str", "xref": {"fqname": "functions.str", "project": "--std--"}, "params": null}]}]}, "default": null}], "returns": null, "documentation": []}, {"name": "cdisc_rules_engine.models.rule_validation_result.RuleValidationResult._get_rule_ids", "asynchronous": false, "params": [{"name": "self", "type": null, "default": null}, {"name": "rule", "type": {"name": "Rule", "xref": {"fqname": "cdisc_rules_engine.models.rule.Rule", "project": null}, "params": null}, "default": null}, {"name": "org", "type": {"name": "str", "xref": {"fqname": "functions.str", "project": "--std--"}, "params": null}, "default": null}], "returns": {"name": "str", "xref": {"fqname": "functions.str", "project": "--std--"}, "params": null}, "documentation": []}, {"name": "cdisc_rules_engine.models.rule_validation_result.RuleValidationResult.to_representation", "asynchronous": false, "params": [{"name": "self", "type": null, "default": null}], "returns": {"name": "dict", "xref": {"fqname": "functions.dict", "project": "--std--"}, "params": null}, "documentation": []}], "class_variables": [], "instance_variables": [], "inner_classes": [], "documentation": []}], "exports": []}, {"name": "cdisc_rules_engine.models.dictionaries.snomed", "documentation": ["This module contains models related\nto SNOME dictionaries."], "functions": [], "variables": [], "classes": [], "exports": [{"name": "cdisc_rules_engine.models.dictionaries.snomed.SNOMEDTermsFactory", "xref": {"fqname": "cdisc_rules_engine.models.dictionaries.snomed.terms_factory.SNOMEDTermsFactory", "project": null}}]}, {"name": "cdisc_rules_engine.models.dictionaries.snomed.validator", "documentation": [], "functions": [], "variables": [], "classes": [{"name": "cdisc_rules_engine.models.dictionaries.snomed.validator.SNOMEDValidator", "bases": ["BaseDictionaryValidator"], "methods": [{"name": "cdisc_rules_engine.models.dictionaries.snomed.validator.SNOMEDValidator.__init__", "asynchronous": false, "params": [{"name": "self", "type": null, "default": null}, {"name": "data_service", "type": {"name": "DataServiceInterface", "xref": {"fqname": "cdisc_rules_engine.interfaces.data_service_interface.DataServiceInterface", "project": null}, "params": null}, "default": "..."}, {"name": "cache_service", "type": {"name": "CacheServiceInterface", "xref": {"fqname": "cdisc_rules_engine.interfaces.cache_service_interface.CacheServiceInterface", "project": null}, "params": null}, "default": "..."}, {"name": "dictionary_path", "type": {"name": "str", "xref": {"fqname": "functions.str", "project": "--std--"}, "params": null}, "default": "..."}, {"name": "**kwargs", "type": null, "default": null}], "returns": null, "documentation": []}, {"name": "cdisc_rules_engine.models.dictionaries.snomed.validator.SNOMEDValidator.get_term_dictionary", "asynchronous": false, "params": [{"name": "self", "type": null, "default": null}, {"name": "concepts", "type": null, "default": "..."}], "returns": null, "documentation": []}, {"name": "cdisc_rules_engine.models.dictionaries.snomed.validator.SNOMEDValidator.is_valid_code", "asynchronous": false, "params": [{"name": "self", "type": null, "default": null}, {"name": "code", "type": {"name": "str", "xref": {"fqname": "functions.str", "project": "--std--"}, "params": null}, "default": null}, {"name": "term_type", "type": {"name": "str", "xref": {"fqname": "functions.str", "project": "--std--"}, "params": null}, "default": null}, {"name": "variable", "type": {"name": "str", "xref": {"fqname": "functions.str", "project": "--std--"}, "params": null}, "default": null}, {"name": "codes", "type": null, "default": "..."}, {"name": "**kwargs", "type": null, "default": null}], "returns": {"name": "bool", "xref": {"fqname": "functions.bool", "project": "--std--"}, "params": null}, "documentation": []}, {"name": "cdisc_rules_engine.models.dictionaries.snomed.validator.SNOMEDValidator.is_valid_code_term_pair", "asynchronous": false, "params": [{"name": "self", "type": null, "default": null}, {"name": "row", "type": null, "default": null}, {"name": "term_var", "type": null, "default": null}, {"name": "code_var", "type": null, "default": null}, {"name": "codes", "type": null, "default": "..."}], "returns": {"name": "bool", "xref": {"fqname": "functions.bool", "project": "--std--"}, "params": null}, "documentation": []}], "class_variables": [], "instance_variables": [], "inner_classes": [], "documentation": []}], "exports": []}, {"name": "cdisc_rules_engine.models.dictionaries.snomed.term", "documentation": [], "functions": [], "variables": [], "classes": [{"name": "cdisc_rules_engine.models.dictionaries.snomed.term.SNOMEDTerm", "bases": [], "methods": [{"name": "cdisc_rules_engine.models.dictionaries.snomed.term.SNOMEDTerm.__init__", "asynchronous": false, "params": [{"name": "self", "type": null, "default": null}, {"name": "concept_id", "type": {"name": "str", "xref": {"fqname": "functions.str", "project": "--std--"}, "params": null}, "default": "..."}, {"name": "active", "type": {"name": "bool", "xref": {"fqname": "functions.bool", "project": "--std--"}, "params": null}, "default": "..."}, {"name": "full_name", "type": {"name": "str", "xref": {"fqname": "functions.str", "project": "--std--"}, "params": null}, "default": "..."}, {"name": "preferred_term", "type": {"name": "str", "xref": {"fqname": "functions.str", "project": "--std--"}, "params": null}, "default": "..."}], "returns": null, "documentation": []}, {"name": "cdisc_rules_engine.models.dictionaries.snomed.term.SNOMEDTerm.from_json", "asynchronous": false, "params": [{"name": "self", "type": null, "default": null}, {"name": "term_data", "type": {"name": "dict", "xref": {"fqname": "functions.dict", "project": "--std--"}, "params": null}, "default": "..."}], "returns": {"name": "SNOMEDTerm", "xref": {"fqname": "cdisc_rules_engine.models.dictionaries.snomed.term.SNOMEDTerm", "project": null}, "params": null}, "documentation": []}], "class_variables": [], "instance_variables": [], "inner_classes": [], "documentation": []}], "exports": []}, {"name": "cdisc_rules_engine.models.dictionaries.snomed.terms_factory", "documentation": [], "functions": [], "variables": [], "classes": [{"name": "cdisc_rules_engine.models.dictionaries.snomed.terms_factory.SNOMEDTermsFactory", "bases": ["TermsFactoryInterface"], "methods": [{"name": "cdisc_rules_engine.models.dictionaries.snomed.terms_factory.SNOMEDTermsFactory.__init__", "asynchronous": false, "params": [{"name": "self", "type": null, "default": null}, {"name": "data_service", "type": null, "default": null}, {"name": "**kwargs", "type": null, "default": null}], "returns": null, "documentation": []}, {"name": "cdisc_rules_engine.models.dictionaries.snomed.terms_factory.SNOMEDTermsFactory.install_terms", "asynchronous": false, "params": [{"name": "self", "type": null, "default": null}, {"name": "directory_path", "type": {"name": "str", "xref": {"fqname": "functions.str", "project": "--std--"}, "params": null}, "default": null}, {"name": "**kwargs", "type": null, "default": null}], "returns": {"name": "ExternalDictionary", "xref": {"fqname": "cdisc_rules_engine.models.dictionaries.base_external_dictionary.ExternalDictionary", "project": null}, "params": null}, "documentation": []}, {"name": "cdisc_rules_engine.models.dictionaries.snomed.terms_factory.SNOMEDTermsFactory.get_version", "asynchronous": false, "params": [{"name": "self", "type": null, "default": null}, {"name": "directory_path", "type": null, "default": "..."}], "returns": null, "documentation": []}, {"name": "cdisc_rules_engine.models.dictionaries.snomed.terms_factory.SNOMEDTermsFactory._handle_api_error", "asynchronous": false, "params": [{"name": "self", "type": null, "default": null}, {"name": "response", "type": null, "default": null}], "returns": null, "documentation": []}, {"name": "cdisc_rules_engine.models.dictionaries.snomed.terms_factory.SNOMEDTermsFactory._get_concepts", "asynchronous": false, "params": [{"name": "self", "type": null, "default": null}, {"name": "published", "type": {"name": "bool", "xref": {"fqname": "functions.bool", "project": "--std--"}, "params": null}, "default": "..."}, {"name": "concept_ids", "type": {"name": "list", "xref": {"fqname": "functions.list", "project": "--std--"}, "params": [{"name": "str", "xref": {"fqname": "functions.str", "project": "--std--"}, "params": null}]}, "default": "..."}], "returns": {"name": "list", "xref": {"fqname": "functions.list", "project": "--std--"}, "params": [{"name": "SNOMEDTerm", "xref": {"fqname": "cdisc_rules_engine.models.dictionaries.snomed.term.SNOMEDTerm", "project": null}, "params": null}]}, "documentation": []}, {"name": "cdisc_rules_engine.models.dictionaries.snomed.terms_factory.SNOMEDTermsFactory._request_concepts", "asynchronous": false, "params": [{"name": "self", "type": null, "default": null}, {"name": "url", "type": null, "default": null}], "returns": null, "documentation": []}, {"name": "cdisc_rules_engine.models.dictionaries.snomed.terms_factory.SNOMEDTermsFactory._chunk_concept_list", "asynchronous": false, "params": [{"name": "self", "type": null, "default": null}, {"name": "concepts", "type": null, "default": null}, {"name": "terms_per_chunk", "type": null, "default": null}], "returns": null, "documentation": []}], "class_variables": [], "instance_variables": [], "inner_classes": [], "documentation": []}], "exports": []}, {"name": "cdisc_rules_engine.models.dictionaries.loinc.loinc_term", "documentation": [], "functions": [], "variables": [], "classes": [{"name": "cdisc_rules_engine.models.dictionaries.loinc.loinc_term.LoincTerm", "bases": [], "methods": [{"name": "cdisc_rules_engine.models.dictionaries.loinc.loinc_term.LoincTerm.__init__", "asynchronous": false, "params": [{"name": "self", "type": null, "default": null}, {"name": "loinc_num", "type": {"name": "str", "xref": {"fqname": "functions.str", "project": "--std--"}, "params": null}, "default": null}, {"name": "component", "type": {"name": "str", "xref": {"fqname": "functions.str", "project": "--std--"}, "params": null}, "default": null}, {"name": "**term_params", "type": null, "default": null}], "returns": null, "documentation": []}], "class_variables": [], "instance_variables": [], "inner_classes": [], "documentation": []}], "exports": []}, {"name": "cdisc_rules_engine.models.dictionaries.loinc", "documentation": ["This module contains DB models related\nto Loinc dictionaries."], "functions": [], "variables": [], "classes": [], "exports": [{"name": "cdisc_rules_engine.models.dictionaries.loinc.LoincTermsFactory", "xref": {"fqname": "cdisc_rules_engine.models.dictionaries.loinc.loinc_terms_factory.LoincTermsFactory", "project": null}}]}, {"name": "cdisc_rules_engine.models.dataset.dask_dataset", "documentation": [], "functions": [], "variables": [{"name": "cdisc_rules_engine.models.dataset.dask_dataset.DEFAULT_NUM_PARTITIONS", "type": null, "documentation": []}], "classes": [{"name": "cdisc_rules_engine.models.dataset.dask_dataset.DaskDataset", "bases": ["PandasDataset"], "methods": [{"name": "cdisc_rules_engine.models.dataset.dask_dataset.DaskDataset.__init__", "asynchronous": false, "params": [{"name": "self", "type": null, "default": null}, {"name": "data", "type": null, "default": "..."}, {"name": "columns", "type": null, "default": "..."}, {"name": "length", "type": null, "default": "..."}], "returns": null, "documentation": []}, {"name": "cdisc_rules_engine.models.dataset.dask_dataset.DaskDataset.data", "asynchronous": false, "params": [{"name": "self", "type": null, "default": null}], "returns": null, "documentation": []}, {"name": "cdisc_rules_engine.models.dataset.dask_dataset.DaskDataset.loc", "asynchronous": false, "params": [{"name": "self", "type": null, "default": null}], "returns": null, "documentation": []}, {"name": "cdisc_rules_engine.models.dataset.dask_dataset.DaskDataset.size", "asynchronous": false, "params": [{"name": "self", "type": null, "default": null}], "returns": null, "documentation": []}, {"name": "cdisc_rules_engine.models.dataset.dask_dataset.DaskDataset.data", "asynchronous": false, "params": [{"name": "self", "type": null, "default": null}, {"name": "data", "type": null, "default": null}], "returns": null, "documentation": []}, {"name": "cdisc_rules_engine.models.dataset.dask_dataset.DaskDataset.__getitem__", "asynchronous": false, "params": [{"name": "self", "type": null, "default": null}, {"name": "item", "type": null, "default": null}], "returns": null, "documentation": []}, {"name": "cdisc_rules_engine.models.dataset.dask_dataset.DaskDataset.is_column_sorted_within", "asynchronous": false, "params": [{"name": "self", "type": null, "default": null}, {"name": "group", "type": null, "default": null}, {"name": "column", "type": null, "default": null}], "returns": null, "documentation": []}, {"name": "cdisc_rules_engine.models.dataset.dask_dataset.DaskDataset.__setitem__", "asynchronous": false, "params": [{"name": "self", "type": null, "default": null}, {"name": "key", "type": null, "default": null}, {"name": "value", "type": null, "default": null}], "returns": null, "documentation": []}, {"name": "cdisc_rules_engine.models.dataset.dask_dataset.DaskDataset.__len__", "asynchronous": false, "params": [{"name": "self", "type": null, "default": null}], "returns": null, "documentation": []}, {"name": "cdisc_rules_engine.models.dataset.dask_dataset.DaskDataset.from_dict", "asynchronous": false, "params": [{"name": "cls", "type": null, "default": null}, {"name": "data", "type": {"name": "dict", "xref": {"fqname": "functions.dict", "project": "--std--"}, "params": null}, "default": null}, {"name": "**kwargs", "type": null, "default": null}], "returns": null, "documentation": []}, {"name": "cdisc_rules_engine.models.dataset.dask_dataset.DaskDataset.from_records", "asynchronous": false, "params": [{"name": "cls", "type": null, "default": null}, {"name": "data", "type": {"name": "List", "xref": {"fqname": "typing.List", "project": "--std--"}, "params": [{"name": "dict", "xref": {"fqname": "functions.dict", "project": "--std--"}, "params": null}]}, "default": null}, {"name": "**kwargs", "type": null, "default": null}], "returns": null, "documentation": []}, {"name": "cdisc_rules_engine.models.dataset.dask_dataset.DaskDataset.get_series_values", "asynchronous": false, "params": [{"name": "cls", "type": null, "default": null}, {"name": "series", "type": null, "default": null}], "returns": {"name": "list", "xref": {"fqname": "functions.list", "project": "--std--"}, "params": null}, "documentation": []}, {"name": "cdisc_rules_engine.models.dataset.dask_dataset.DaskDataset.get", "asynchronous": false, "params": [{"name": "self", "type": null, "default": null}, {"name": "target", "type": {"name": "Union", "xref": {"fqname": "typing.Union", "project": "--std--"}, "params": [{"name": "str", "xref": {"fqname": "functions.str", "project": "--std--"}, "params": null}, {"name": "List", "xref": {"fqname": "typing.List", "project": "--std--"}, "params": [{"name": "str", "xref": {"fqname": "functions.str", "project": "--std--"}, "params": null}]}]}, "default": null}, {"name": "default", "type": null, "default": "..."}], "returns": null, "documentation": []}, {"name": "cdisc_rules_engine.models.dataset.dask_dataset.DaskDataset.apply", "asynchronous": false, "params": [{"name": "self", "type": null, "default": null}, {"name": "func", "type": null, "default": null}, {"name": "**kwargs", "type": null, "default": null}], "returns": null, "documentation": []}, {"name": "cdisc_rules_engine.models.dataset.dask_dataset.DaskDataset.merge", "asynchronous": false, "params": [{"name": "self", "type": null, "default": null}, {"name": "other", "type": null, "default": null}, {"name": "**kwargs", "type": null, "default": null}], "returns": null, "documentation": []}, {"name": "cdisc_rules_engine.models.dataset.dask_dataset.DaskDataset.__concat_columns", "asynchronous": false, "params": [{"name": "self", "type": null, "default": null}, {"name": "current", "type": null, "default": null}, {"name": "other", "type": null, "default": null}], "returns": null, "documentation": []}, {"name": "cdisc_rules_engine.models.dataset.dask_dataset.DaskDataset.concat", "asynchronous": false, "params": [{"name": "self", "type": null, "default": null}, {"name": "other", "type": null, "default": null}, {"name": "**kwargs", "type": null, "default": null}], "returns": null, "documentation": []}, {"name": "cdisc_rules_engine.models.dataset.dask_dataset.DaskDataset.groupby", "asynchronous": false, "params": [{"name": "self", "type": null, "default": null}, {"name": "by", "type": {"name": "List", "xref": {"fqname": "typing.List", "project": "--std--"}, "params": [{"name": "str", "xref": {"fqname": "functions.str", "project": "--std--"}, "params": null}]}, "default": null}, {"name": "**kwargs", "type": null, "default": null}], "returns": null, "documentation": []}, {"name": "cdisc_rules_engine.models.dataset.dask_dataset.DaskDataset.get_grouped_size", "asynchronous": false, "params": [{"name": "self", "type": null, "default": null}, {"name": "by", "type": null, "default": null}, {"name": "**kwargs", "type": null, "default": null}], "returns": null, "documentation": []}, {"name": "cdisc_rules_engine.models.dataset.dask_dataset.DaskDataset.is_series", "asynchronous": false, "params": [{"name": "cls", "type": null, "default": null}, {"name": "data", "type": null, "default": null}], "returns": {"name": "bool", "xref": {"fqname": "functions.bool", "project": "--std--"}, "params": null}, "documentation": []}, {"name": "cdisc_rules_engine.models.dataset.dask_dataset.DaskDataset.len", "asynchronous": false, "params": [{"name": "self", "type": null, "default": null}], "returns": {"name": "int", "xref": {"fqname": "functions.int", "project": "--std--"}, "params": null}, "documentation": []}, {"name": "cdisc_rules_engine.models.dataset.dask_dataset.DaskDataset.rename", "asynchronous": false, "params": [{"name": "self", "type": null, "default": null}, {"name": "index", "type": null, "default": "..."}, {"name": "columns", "type": null, "default": "..."}, {"name": "inplace", "type": null, "default": "..."}], "returns": null, "documentation": []}, {"name": "cdisc_rules_engine.models.dataset.dask_dataset.DaskDataset.drop", "asynchronous": false, "params": [{"name": "self", "type": null, "default": null}, {"name": "labels", "type": null, "default": "..."}, {"name": "axis", "type": null, "default": "..."}, {"name": "columns", "type": null, "default": "..."}, {"name": "errors", "type": null, "default": "..."}], "returns": null, "documentation": ["Drop specified labels from rows or columns."]}, {"name": "cdisc_rules_engine.models.dataset.dask_dataset.DaskDataset.melt", "asynchronous": false, "params": [{"name": "self", "type": null, "default": null}, {"name": "id_vars", "type": null, "default": "..."}, {"name": "value_vars", "type": null, "default": "..."}, {"name": "var_name", "type": null, "default": "..."}, {"name": "value_name", "type": null, "default": "..."}, {"name": "col_level", "type": null, "default": "..."}], "returns": null, "documentation": ["Unpivots a DataFrame from wide format to long format,\noptionally leaving identifier variables set."]}, {"name": "cdisc_rules_engine.models.dataset.dask_dataset.DaskDataset.assign", "asynchronous": false, "params": [{"name": "self", "type": null, "default": null}, {"name": "**kwargs", "type": null, "default": null}], "returns": null, "documentation": []}, {"name": "cdisc_rules_engine.models.dataset.dask_dataset.DaskDataset.copy", "asynchronous": false, "params": [{"name": "self", "type": null, "default": null}], "returns": null, "documentation": []}, {"name": "cdisc_rules_engine.models.dataset.dask_dataset.DaskDataset.equals", "asynchronous": false, "params": [{"name": "self", "type": null, "default": null}, {"name": "other_dataset", "type": null, "default": null}], "returns": null, "documentation": []}, {"name": "cdisc_rules_engine.models.dataset.dask_dataset.DaskDataset.get_error_rows", "asynchronous": false, "params": [{"name": "self", "type": null, "default": null}, {"name": "results", "type": null, "default": null}], "returns": {"name": "pd.Dataframe", "xref": {"fqname": "pandas.Dataframe", "project": "pandas"}, "params": null}, "documentation": ["Returns a pandas dataframe with all errors found in the dataset. Limited to 1000"]}, {"name": "cdisc_rules_engine.models.dataset.dask_dataset.DaskDataset.cartesian_product", "asynchronous": false, "params": [{"name": "cls", "type": null, "default": null}, {"name": "left", "type": null, "default": null}, {"name": "right", "type": null, "default": null}], "returns": null, "documentation": ["Return the cartesian product of two dataframes"]}, {"name": "cdisc_rules_engine.models.dataset.dask_dataset.DaskDataset.dropna", "asynchronous": false, "params": [{"name": "self", "type": null, "default": null}, {"name": "inplace", "type": null, "default": "..."}, {"name": "**kwargs", "type": null, "default": null}], "returns": null, "documentation": []}, {"name": "cdisc_rules_engine.models.dataset.dask_dataset.DaskDataset.at", "asynchronous": false, "params": [{"name": "self", "type": null, "default": null}, {"name": "row_label", "type": null, "default": null}, {"name": "col_label", "type": null, "default": null}], "returns": null, "documentation": ["Get a single value for a row/column pair."]}, {"name": "cdisc_rules_engine.models.dataset.dask_dataset.DaskDataset.drop_duplicates", "asynchronous": false, "params": [{"name": "self", "type": null, "default": null}, {"name": "subset", "type": null, "default": "..."}, {"name": "keep", "type": null, "default": "..."}, {"name": "**kwargs", "type": null, "default": null}], "returns": null, "documentation": ["Drop duplicate rows from the dataset."]}, {"name": "cdisc_rules_engine.models.dataset.dask_dataset.DaskDataset.replace", "asynchronous": false, "params": [{"name": "self", "type": null, "default": null}, {"name": "to_replace", "type": null, "default": null}, {"name": "value", "type": null, "default": null}, {"name": "**kwargs", "type": null, "default": null}], "returns": null, "documentation": []}, {"name": "cdisc_rules_engine.models.dataset.dask_dataset.DaskDataset.astype", "asynchronous": false, "params": [{"name": "self", "type": null, "default": null}, {"name": "dtype", "type": null, "default": null}, {"name": "**kwargs", "type": null, "default": null}], "returns": null, "documentation": []}, {"name": "cdisc_rules_engine.models.dataset.dask_dataset.DaskDataset.filter", "asynchronous": false, "params": [{"name": "self", "type": null, "default": null}, {"name": "**kwargs", "type": null, "default": null}], "returns": null, "documentation": []}, {"name": "cdisc_rules_engine.models.dataset.dask_dataset.DaskDataset.min", "asynchronous": false, "params": [{"name": "self", "type": null, "default": null}, {"name": "*args", "type": null, "default": null}, {"name": "**kwargs", "type": null, "default": null}], "returns": null, "documentation": ["Return the minimum of the values over the requested axis."]}, {"name": "cdisc_rules_engine.models.dataset.dask_dataset.DaskDataset.reset_index", "asynchronous": false, "params": [{"name": "self", "type": null, "default": null}, {"name": "drop", "type": null, "default": "..."}, {"name": "**kwargs", "type": null, "default": null}], "returns": null, "documentation": ["Reset the index of the dataset."]}, {"name": "cdisc_rules_engine.models.dataset.dask_dataset.DaskDataset.iloc", "asynchronous": false, "params": [{"name": "self", "type": null, "default": null}, {"name": "row", "type": null, "default": null}, {"name": "column", "type": null, "default": null}], "returns": null, "documentation": ["Purely integer-location based indexing for selection by position."]}, {"name": "cdisc_rules_engine.models.dataset.dask_dataset.DaskDataset.fillna", "asynchronous": false, "params": [{"name": "self", "type": null, "default": null}, {"name": "value", "type": null, "default": "..."}, {"name": "method", "type": null, "default": "..."}, {"name": "axis", "type": null, "default": "..."}, {"name": "inplace", "type": null, "default": "..."}, {"name": "limit", "type": null, "default": "..."}, {"name": "downcast", "type": null, "default": "..."}], "returns": null, "documentation": ["Fill NA/NaN values using the specified method."]}], "class_variables": [], "instance_variables": [], "inner_classes": [], "documentation": []}], "exports": []}, {"name": "cdisc_rules_engine.models.dictionaries.loinc.loinc_validator", "documentation": [], "functions": [], "variables": [], "classes": [{"name": "cdisc_rules_engine.models.dictionaries.loinc.loinc_validator.LoincValidator", "bases": ["BaseDictionaryValidator"], "methods": [{"name": "cdisc_rules_engine.models.dictionaries.loinc.loinc_validator.LoincValidator.__init__", "asynchronous": false, "params": [{"name": "self", "type": null, "default": null}, {"name": "data_service", "type": {"name": "DataServiceInterface", "xref": {"fqname": "cdisc_rules_engine.interfaces.data_service_interface.DataServiceInterface", "project": null}, "params": null}, "default": "..."}, {"name": "cache_service", "type": {"name": "CacheServiceInterface", "xref": {"fqname": "cdisc_rules_engine.interfaces.cache_service_interface.CacheServiceInterface", "project": null}, "params": null}, "default": "..."}, {"name": "dictionary_path", "type": {"name": "str", "xref": {"fqname": "functions.str", "project": "--std--"}, "params": null}, "default": "..."}, {"name": "**kwargs", "type": null, "default": null}], "returns": null, "documentation": []}, {"name": "cdisc_rules_engine.models.dictionaries.loinc.loinc_validator.LoincValidator.is_valid_term", "asynchronous": false, "params": [{"name": "self", "type": null, "default": null}, {"name": "term", "type": {"name": "str", "xref": {"fqname": "functions.str", "project": "--std--"}, "params": null}, "default": null}, {"name": "term_type", "type": {"name": "str", "xref": {"fqname": "functions.str", "project": "--std--"}, "params": null}, "default": "..."}, {"name": "variable", "type": {"name": "str", "xref": {"fqname": "functions.str", "project": "--std--"}, "params": null}, "default": "..."}, {"name": "codes", "type": null, "default": "..."}, {"name": "**kwargs", "type": null, "default": null}], "returns": {"name": "bool", "xref": {"fqname": "functions.bool", "project": "--std--"}, "params": null}, "documentation": ["Method to identify whether a term is valid based on its term type.\n\nArgs:\n    term: The dictionary term used\n    term_type: The term type to validate against\n    variable: The variable used to source the term data\n    kwargs: Additional validator specific variables\n\nReturns:\n    True: The term is valid\n    False: The term is not valid"]}, {"name": "cdisc_rules_engine.models.dictionaries.loinc.loinc_validator.LoincValidator.is_valid_code", "asynchronous": false, "params": [{"name": "self", "type": null, "default": null}, {"name": "code", "type": {"name": "str", "xref": {"fqname": "functions.str", "project": "--std--"}, "params": null}, "default": null}, {"name": "term_type", "type": {"name": "str", "xref": {"fqname": "functions.str", "project": "--std--"}, "params": null}, "default": "..."}, {"name": "variable", "type": {"name": "str", "xref": {"fqname": "functions.str", "project": "--std--"}, "params": null}, "default": "..."}, {"name": "codes", "type": null, "default": "..."}, {"name": "**kwargs", "type": null, "default": null}], "returns": {"name": "bool", "xref": {"fqname": "functions.bool", "project": "--std--"}, "params": null}, "documentation": ["Method to identify whether a term is valid based on its term type.\n\nArgs:\n    code: The dictionary code used\n    term_type: The term type to validate against\n    variable: The variable used to source the term data\n    kwargs: Additional validator specific variables\n\nReturns:\n    True: The term is valid\n    False: The term is not valid"]}], "class_variables": [], "instance_variables": [], "inner_classes": [], "documentation": []}], "exports": []}, {"name": "cdisc_rules_engine.models.dictionaries.loinc.loinc_terms_factory", "documentation": [], "functions": [], "variables": [], "classes": [{"name": "cdisc_rules_engine.models.dictionaries.loinc.loinc_terms_factory.LoincTermsFactory", "bases": ["TermsFactoryInterface"], "methods": [{"name": "cdisc_rules_engine.models.dictionaries.loinc.loinc_terms_factory.LoincTermsFactory.__init__", "asynchronous": false, "params": [{"name": "self", "type": null, "default": null}, {"name": "data_service", "type": {"name": "DataServiceInterface", "xref": {"fqname": "cdisc_rules_engine.interfaces.DataServiceInterface", "project": null}, "params": null}, "default": null}, {"name": "**kwargs", "type": null, "default": null}], "returns": null, "documentation": []}, {"name": "cdisc_rules_engine.models.dictionaries.loinc.loinc_terms_factory.LoincTermsFactory.install_terms", "asynchronous": false, "params": [{"name": "self", "type": null, "default": null}, {"name": "directory_path", "type": {"name": "str", "xref": {"fqname": "functions.str", "project": "--std--"}, "params": null}, "default": null}], "returns": {"name": "ExternalDictionary", "xref": {"fqname": "cdisc_rules_engine.models.dictionaries.base_external_dictionary.ExternalDictionary", "project": null}, "params": null}, "documentation": ["Create LOINC dictionary terms from files in directory."]}, {"name": "cdisc_rules_engine.models.dictionaries.loinc.loinc_terms_factory.LoincTermsFactory.get_version", "asynchronous": false, "params": [{"name": "self", "type": null, "default": null}, {"name": "directory_path", "type": null, "default": null}], "returns": {"name": "str", "xref": {"fqname": "functions.str", "project": "--std--"}, "params": null}, "documentation": []}], "class_variables": [], "instance_variables": [], "inner_classes": [], "documentation": ["This class is a factory that accepts file name\nand contents and creates a term record for each line."]}], "exports": []}, {"name": "cdisc_rules_engine.models.dictionaries.whodrug.whodrug_validator", "documentation": [], "functions": [], "variables": [], "classes": [{"name": "cdisc_rules_engine.models.dictionaries.whodrug.whodrug_validator.WhoDrugValidator", "bases": ["BaseDictionaryValidator"], "methods": [{"name": "cdisc_rules_engine.models.dictionaries.whodrug.whodrug_validator.WhoDrugValidator.__init__", "asynchronous": false, "params": [{"name": "self", "type": null, "default": null}, {"name": "data_service", "type": {"name": "DataServiceInterface", "xref": {"fqname": "cdisc_rules_engine.interfaces.data_service_interface.DataServiceInterface", "project": null}, "params": null}, "default": "..."}, {"name": "cache_service", "type": {"name": "CacheServiceInterface", "xref": {"fqname": "cdisc_rules_engine.interfaces.cache_service_interface.CacheServiceInterface", "project": null}, "params": null}, "default": "..."}, {"name": "dictionary_path", "type": {"name": "str", "xref": {"fqname": "functions.str", "project": "--std--"}, "params": null}, "default": "..."}, {"name": "**kwargs", "type": null, "default": null}], "returns": null, "documentation": []}, {"name": "cdisc_rules_engine.models.dictionaries.whodrug.whodrug_validator.WhoDrugValidator.is_valid_term", "asynchronous": false, "params": [{"name": "self", "type": null, "default": null}, {"name": "term", "type": {"name": "str", "xref": {"fqname": "functions.str", "project": "--std--"}, "params": null}, "default": null}, {"name": "term_type", "type": {"name": "str", "xref": {"fqname": "functions.str", "project": "--std--"}, "params": null}, "default": "..."}, {"name": "variable", "type": {"name": "str", "xref": {"fqname": "functions.str", "project": "--std--"}, "params": null}, "default": "..."}, {"name": "**kwargs", "type": null, "default": null}], "returns": {"name": "bool", "xref": {"fqname": "functions.bool", "project": "--std--"}, "params": null}, "documentation": ["Method to identify whether a term is valid based on its term type.\n\nArgs:\n    term: The dictionary term used\n    term_type: The term type to validate against\n    variable: The variable used to source the term data\n    kwargs: Additional validator specific variables\n\nReturns:\n    True: The term is valid\n    False: The term is not valid"]}, {"name": "cdisc_rules_engine.models.dictionaries.whodrug.whodrug_validator.WhoDrugValidator.is_valid_code", "asynchronous": false, "params": [{"name": "self", "type": null, "default": null}, {"name": "code", "type": {"name": "str", "xref": {"fqname": "functions.str", "project": "--std--"}, "params": null}, "default": null}, {"name": "term_type", "type": {"name": "str", "xref": {"fqname": "functions.str", "project": "--std--"}, "params": null}, "default": "..."}, {"name": "variable", "type": {"name": "str", "xref": {"fqname": "functions.str", "project": "--std--"}, "params": null}, "default": "..."}, {"name": "codes", "type": null, "default": "..."}, {"name": "**kwargs", "type": null, "default": null}], "returns": {"name": "bool", "xref": {"fqname": "functions.bool", "project": "--std--"}, "params": null}, "documentation": ["Method to identify whether a term is valid based on its term type.\n\nArgs:\n    term: The dictionary term used\n    term_type: The term type to validate against\n    variable: The variable used to source the term data\n    kwargs: Additional validator specific variables\n\nReturns:\n    True: The term is valid\n    False: The term is not valid"]}], "class_variables": [], "instance_variables": [], "inner_classes": [], "documentation": []}], "exports": []}, {"name": "cdisc_rules_engine.models.dictionaries.whodrug.whodrug_file_names", "documentation": [], "functions": [], "variables": [], "classes": [{"name": "cdisc_rules_engine.models.dictionaries.whodrug.whodrug_file_names.WhodrugFileNames", "bases": ["BaseEnum"], "methods": [], "class_variables": [{"name": "cdisc_rules_engine.models.dictionaries.whodrug.whodrug_file_names.WhodrugFileNames.DD_FILE_NAME", "type": null, "documentation": []}, {"name": "cdisc_rules_engine.models.dictionaries.whodrug.whodrug_file_names.WhodrugFileNames.INA_FILE_NAME", "type": null, "documentation": []}, {"name": "cdisc_rules_engine.models.dictionaries.whodrug.whodrug_file_names.WhodrugFileNames.DDA_FILE_NAME", "type": null, "documentation": []}, {"name": "cdisc_rules_engine.models.dictionaries.whodrug.whodrug_file_names.WhodrugFileNames.VERSION", "type": null, "documentation": []}], "instance_variables": [], "inner_classes": [], "documentation": ["This enum holds available whodrug file names."]}], "exports": []}, {"name": "cdisc_rules_engine.models.dictionaries.whodrug.atc_text", "documentation": [], "functions": [], "variables": [], "classes": [{"name": "cdisc_rules_engine.models.dictionaries.whodrug.atc_text.AtcText", "bases": ["BaseWhoDrugTerm"], "methods": [{"name": "cdisc_rules_engine.models.dictionaries.whodrug.atc_text.AtcText.__init__", "asynchronous": false, "params": [{"name": "self", "type": null, "default": null}, {"name": "record_params", "type": {"name": "dict", "xref": {"fqname": "functions.dict", "project": "--std--"}, "params": null}, "default": null}], "returns": null, "documentation": []}, {"name": "cdisc_rules_engine.models.dictionaries.whodrug.atc_text.AtcText.from_txt_line", "asynchronous": false, "params": [{"name": "cls", "type": null, "default": null}, {"name": "line", "type": {"name": "str", "xref": {"fqname": "functions.str", "project": "--std--"}, "params": null}, "default": null}], "returns": {"name": "AtcText", "xref": {"fqname": "cdisc_rules_engine.models.dictionaries.whodrug.atc_text.AtcText", "project": null}, "params": null}, "documentation": []}, {"name": "cdisc_rules_engine.models.dictionaries.whodrug.atc_text.AtcText.get_identifier", "asynchronous": false, "params": [{"name": "self", "type": null, "default": null}], "returns": {"name": "str", "xref": {"fqname": "functions.str", "project": "--std--"}, "params": null}, "documentation": []}, {"name": "cdisc_rules_engine.models.dictionaries.whodrug.atc_text.AtcText.get_parent_identifier", "asynchronous": false, "params": [{"name": "self", "type": null, "default": null}], "returns": {"name": "str", "xref": {"fqname": "functions.str", "project": "--std--"}, "params": null}, "documentation": []}], "class_variables": [], "instance_variables": [], "inner_classes": [], "documentation": ["This class describes the ATC TEXT (INA) file."]}], "exports": []}, {"name": "cdisc_rules_engine.models.dictionaries.whodrug.whodrug_variable_names", "documentation": [], "functions": [], "variables": [], "classes": [{"name": "cdisc_rules_engine.models.dictionaries.whodrug.whodrug_variable_names.WhodrugVariableNames", "bases": ["BaseEnum"], "methods": [], "class_variables": [{"name": "cdisc_rules_engine.models.dictionaries.whodrug.whodrug_variable_names.WhodrugVariableNames.DRUG_NAME", "type": null, "documentation": []}, {"name": "cdisc_rules_engine.models.dictionaries.whodrug.whodrug_variable_names.WhodrugVariableNames.ATC_TEXT", "type": null, "documentation": []}, {"name": "cdisc_rules_engine.models.dictionaries.whodrug.whodrug_variable_names.WhodrugVariableNames.ATC_CLASSIFICATION", "type": null, "documentation": []}], "instance_variables": [], "inner_classes": [], "documentation": ["This enum holds available whodrug record types."]}], "exports": []}, {"name": "cdisc_rules_engine.models.dictionaries.whodrug", "documentation": [], "functions": [], "variables": [], "classes": [], "exports": [{"name": "cdisc_rules_engine.models.dictionaries.whodrug.AtcClassification", "xref": {"fqname": "cdisc_rules_engine.models.dictionaries.whodrug.atc_classification.AtcClassification", "project": null}}, {"name": "cdisc_rules_engine.models.dictionaries.whodrug.AtcText", "xref": {"fqname": "cdisc_rules_engine.models.dictionaries.whodrug.atc_text.AtcText", "project": null}}, {"name": "cdisc_rules_engine.models.dictionaries.whodrug.DrugDictionary", "xref": {"fqname": "cdisc_rules_engine.models.dictionaries.whodrug.drug_dict.DrugDictionary", "project": null}}, {"name": "cdisc_rules_engine.models.dictionaries.whodrug.WhodrugFileNames", "xref": {"fqname": "cdisc_rules_engine.models.dictionaries.whodrug.whodrug_file_names.WhodrugFileNames", "project": null}}, {"name": "cdisc_rules_engine.models.dictionaries.whodrug.WhodrugRecordTypes", "xref": {"fqname": "cdisc_rules_engine.models.dictionaries.whodrug.whodrug_record_types.WhodrugRecordTypes", "project": null}}, {"name": "cdisc_rules_engine.models.dictionaries.whodrug.WhoDrugTermsFactory", "xref": {"fqname": "cdisc_rules_engine.models.dictionaries.whodrug.whodrug_terms_factory.WhoDrugTermsFactory", "project": null}}]}, {"name": "cdisc_rules_engine.models.dictionaries.whodrug.atc_classification", "documentation": [], "functions": [], "variables": [], "classes": [{"name": "cdisc_rules_engine.models.dictionaries.whodrug.atc_classification.AtcClassification", "bases": ["BaseWhoDrugTerm"], "methods": [{"name": "cdisc_rules_engine.models.dictionaries.whodrug.atc_classification.AtcClassification.__init__", "asynchronous": false, "params": [{"name": "self", "type": null, "default": null}, {"name": "record_params", "type": {"name": "dict", "xref": {"fqname": "functions.dict", "project": "--std--"}, "params": null}, "default": null}], "returns": null, "documentation": []}, {"name": "cdisc_rules_engine.models.dictionaries.whodrug.atc_classification.AtcClassification.from_txt_line", "asynchronous": false, "params": [{"name": "cls", "type": null, "default": null}, {"name": "line", "type": {"name": "str", "xref": {"fqname": "functions.str", "project": "--std--"}, "params": null}, "default": null}], "returns": {"name": "AtcClassification", "xref": {"fqname": "cdisc_rules_engine.models.dictionaries.whodrug.atc_classification.AtcClassification", "project": null}, "params": null}, "documentation": []}, {"name": "cdisc_rules_engine.models.dictionaries.whodrug.atc_classification.AtcClassification.get_identifier", "asynchronous": false, "params": [{"name": "self", "type": null, "default": null}], "returns": {"name": "str", "xref": {"fqname": "functions.str", "project": "--std--"}, "params": null}, "documentation": []}, {"name": "cdisc_rules_engine.models.dictionaries.whodrug.atc_classification.AtcClassification.get_parent_identifier", "asynchronous": false, "params": [{"name": "self", "type": null, "default": null}], "returns": {"name": "str", "xref": {"fqname": "functions.str", "project": "--std--"}, "params": null}, "documentation": []}], "class_variables": [], "instance_variables": [], "inner_classes": [], "documentation": ["This class describes the ATC CLASSIFICATION (DDA) file."]}], "exports": []}, {"name": "cdisc_rules_engine.models.dictionaries.whodrug.base_whodrug_term", "documentation": [], "functions": [], "variables": [], "classes": [{"name": "cdisc_rules_engine.models.dictionaries.whodrug.base_whodrug_term.BaseWhoDrugTerm", "bases": ["DictionaryTermInterface"], "methods": [{"name": "cdisc_rules_engine.models.dictionaries.whodrug.base_whodrug_term.BaseWhoDrugTerm.__init__", "asynchronous": false, "params": [{"name": "self", "type": null, "default": null}, {"name": "record_params", "type": {"name": "dict", "xref": {"fqname": "functions.dict", "project": "--std--"}, "params": null}, "default": null}], "returns": null, "documentation": []}, {"name": "cdisc_rules_engine.models.dictionaries.whodrug.base_whodrug_term.BaseWhoDrugTerm.from_txt_line", "asynchronous": false, "params": [{"name": "cls", "type": null, "default": null}, {"name": "line", "type": {"name": "str", "xref": {"fqname": "functions.str", "project": "--std--"}, "params": null}, "default": null}], "returns": {"name": "BaseWhoDrugTerm", "xref": {"fqname": "cdisc_rules_engine.models.dictionaries.whodrug.base_whodrug_term.BaseWhoDrugTerm", "project": null}, "params": null}, "documentation": ["Creates an instance from the given line.\nDoes not save it to the DB."]}, {"name": "cdisc_rules_engine.models.dictionaries.whodrug.base_whodrug_term.BaseWhoDrugTerm.get_identifier", "asynchronous": false, "params": [{"name": "self", "type": null, "default": null}], "returns": {"name": "str", "xref": {"fqname": "functions.str", "project": "--std--"}, "params": null}, "documentation": ["Return a unique code to identify the term"]}, {"name": "cdisc_rules_engine.models.dictionaries.whodrug.base_whodrug_term.BaseWhoDrugTerm.get_parent_identifier", "asynchronous": false, "params": [{"name": "self", "type": null, "default": null}], "returns": {"name": "str", "xref": {"fqname": "functions.str", "project": "--std--"}, "params": null}, "documentation": ["Return a unique code to identify the parent term"]}], "class_variables": [], "instance_variables": [], "inner_classes": [], "documentation": ["This class contains some common implementation\nbetween all WhoDrug terms."]}], "exports": []}, {"name": "cdisc_rules_engine.models.dictionaries.whodrug.whodrug_record_types", "documentation": [], "functions": [], "variables": [], "classes": [{"name": "cdisc_rules_engine.models.dictionaries.whodrug.whodrug_record_types.WhodrugRecordTypes", "bases": ["BaseEnum"], "methods": [], "class_variables": [{"name": "cdisc_rules_engine.models.dictionaries.whodrug.whodrug_record_types.WhodrugRecordTypes.DRUG_DICT", "type": null, "documentation": []}, {"name": "cdisc_rules_engine.models.dictionaries.whodrug.whodrug_record_types.WhodrugRecordTypes.ATC_TEXT", "type": null, "documentation": []}, {"name": "cdisc_rules_engine.models.dictionaries.whodrug.whodrug_record_types.WhodrugRecordTypes.ATC_CLASSIFICATION", "type": null, "documentation": []}], "instance_variables": [], "inner_classes": [], "documentation": ["This enum holds available whodrug record types."]}], "exports": []}, {"name": "cdisc_rules_engine.models.dictionaries.whodrug.drug_dict", "documentation": [], "functions": [], "variables": [], "classes": [{"name": "cdisc_rules_engine.models.dictionaries.whodrug.drug_dict.DrugDictionary", "bases": ["BaseWhoDrugTerm"], "methods": [{"name": "cdisc_rules_engine.models.dictionaries.whodrug.drug_dict.DrugDictionary.__init__", "asynchronous": false, "params": [{"name": "self", "type": null, "default": null}, {"name": "record_params", "type": {"name": "dict", "xref": {"fqname": "functions.dict", "project": "--std--"}, "params": null}, "default": null}], "returns": null, "documentation": []}, {"name": "cdisc_rules_engine.models.dictionaries.whodrug.drug_dict.DrugDictionary.from_txt_line", "asynchronous": false, "params": [{"name": "cls", "type": null, "default": null}, {"name": "line", "type": {"name": "str", "xref": {"fqname": "functions.str", "project": "--std--"}, "params": null}, "default": null}], "returns": {"name": "DrugDictionary", "xref": {"fqname": "cdisc_rules_engine.models.dictionaries.whodrug.drug_dict.DrugDictionary", "project": null}, "params": null}, "documentation": []}, {"name": "cdisc_rules_engine.models.dictionaries.whodrug.drug_dict.DrugDictionary.get_identifier", "asynchronous": false, "params": [{"name": "self", "type": null, "default": null}], "returns": {"name": "str", "xref": {"fqname": "functions.str", "project": "--std--"}, "params": null}, "documentation": []}, {"name": "cdisc_rules_engine.models.dictionaries.whodrug.drug_dict.DrugDictionary.get_parent_identifier", "asynchronous": false, "params": [{"name": "self", "type": null, "default": null}], "returns": {"name": "str", "xref": {"fqname": "functions.str", "project": "--std--"}, "params": null}, "documentation": []}], "class_variables": [], "instance_variables": [], "inner_classes": [], "documentation": ["This class describes the DRUG DICTIONARY (DD) file."]}], "exports": []}, {"name": "cdisc_rules_engine.models.dictionaries.medrt", "documentation": ["This module contains models related\nto MEDRT dictionaries."], "functions": [], "variables": [], "classes": [], "exports": [{"name": "cdisc_rules_engine.models.dictionaries.medrt.MEDRTTermsFactory", "xref": {"fqname": "cdisc_rules_engine.models.dictionaries.medrt.terms_factory.MEDRTTermsFactory", "project": null}}]}, {"name": "cdisc_rules_engine.models.dictionaries.whodrug.whodrug_terms_factory", "documentation": [], "functions": [], "variables": [], "classes": [{"name": "cdisc_rules_engine.models.dictionaries.whodrug.whodrug_terms_factory.WhoDrugTermsFactory", "bases": ["TermsFactoryInterface"], "methods": [{"name": "cdisc_rules_engine.models.dictionaries.whodrug.whodrug_terms_factory.WhoDrugTermsFactory.__init__", "asynchronous": false, "params": [{"name": "self", "type": null, "default": null}, {"name": "data_service", "type": {"name": "DataServiceInterface", "xref": {"fqname": "cdisc_rules_engine.interfaces.DataServiceInterface", "project": null}, "params": null}, "default": null}, {"name": "**kwargs", "type": null, "default": null}], "returns": null, "documentation": []}, {"name": "cdisc_rules_engine.models.dictionaries.whodrug.whodrug_terms_factory.WhoDrugTermsFactory.get_version", "asynchronous": false, "params": [{"name": "self", "type": null, "default": null}, {"name": "directory_path", "type": {"name": "str", "xref": {"fqname": "functions.str", "project": "--std--"}, "params": null}, "default": null}], "returns": {"name": "str", "xref": {"fqname": "functions.str", "project": "--std--"}, "params": null}, "documentation": []}, {"name": "cdisc_rules_engine.models.dictionaries.whodrug.whodrug_terms_factory.WhoDrugTermsFactory.install_terms", "asynchronous": false, "params": [{"name": "self", "type": null, "default": null}, {"name": "directory_path", "type": {"name": "str", "xref": {"fqname": "functions.str", "project": "--std--"}, "params": null}, "default": null}], "returns": {"name": "ExternalDictionary", "xref": {"fqname": "cdisc_rules_engine.models.dictionaries.base_external_dictionary.ExternalDictionary", "project": null}, "params": null}, "documentation": ["Accepts directory path and creates\nterm records for each line.\n\nReturns an ExternalDictionary containing a version string and\na mapping of terms witht he following structure:\n{\n    \u201centity_type_1\u201d: [<term obj>, <term obj>, ...],\n    \u201centity_type_2\u201d: [<term obj>, <term obj>, ...],\n    ...\n}"]}, {"name": "cdisc_rules_engine.models.dictionaries.whodrug.whodrug_terms_factory.WhoDrugTermsFactory.__create_term_objects_from_file", "asynchronous": false, "params": [{"name": "self", "type": null, "default": null}, {"name": "code_to_term_map", "type": {"name": "defaultdict", "xref": {"fqname": "collections.defaultdict", "project": "--std--"}, "params": null}, "default": null}, {"name": "dictionary_filename", "type": {"name": "str", "xref": {"fqname": "functions.str", "project": "--std--"}, "params": null}, "default": null}, {"name": "file_path", "type": {"name": "str", "xref": {"fqname": "functions.str", "project": "--std--"}, "params": null}, "default": null}], "returns": null, "documentation": ["Creates a list of term objects for each line of the file.\ncode_to_term_map is changed by reference."]}], "class_variables": [], "instance_variables": [], "inner_classes": [], "documentation": ["This class is a factory that accepts file name\nand contents and creates a term record for each line."]}], "exports": []}, {"name": "cdisc_rules_engine.models.dictionaries.medrt.term", "documentation": [], "functions": [], "variables": [], "classes": [{"name": "cdisc_rules_engine.models.dictionaries.medrt.term.MEDRTTerm", "bases": [], "methods": [{"name": "cdisc_rules_engine.models.dictionaries.medrt.term.MEDRTTerm.__init__", "asynchronous": false, "params": [{"name": "self", "type": null, "default": null}, {"name": "code", "type": null, "default": null}, {"name": "id", "type": null, "default": null}, {"name": "**term_params", "type": null, "default": null}], "returns": null, "documentation": []}], "class_variables": [], "instance_variables": [], "inner_classes": [], "documentation": []}, {"name": "cdisc_rules_engine.models.dictionaries.medrt.term.MEDRTConcept", "bases": [], "methods": [{"name": "cdisc_rules_engine.models.dictionaries.medrt.term.MEDRTConcept.__init__", "asynchronous": false, "params": [{"name": "self", "type": null, "default": null}, {"name": "**params", "type": null, "default": null}], "returns": null, "documentation": []}], "class_variables": [], "instance_variables": [], "inner_classes": [], "documentation": []}], "exports": []}, {"name": "cdisc_rules_engine.models.dictionaries.medrt.terms_factory", "documentation": [], "functions": [], "variables": [], "classes": [{"name": "cdisc_rules_engine.models.dictionaries.medrt.terms_factory.MEDRTTermsFactory", "bases": ["TermsFactoryInterface"], "methods": [{"name": "cdisc_rules_engine.models.dictionaries.medrt.terms_factory.MEDRTTermsFactory.__init__", "asynchronous": false, "params": [{"name": "self", "type": null, "default": null}, {"name": "data_service", "type": {"name": "DataServiceInterface", "xref": {"fqname": "cdisc_rules_engine.interfaces.DataServiceInterface", "project": null}, "params": null}, "default": null}, {"name": "**kwargs", "type": null, "default": null}], "returns": null, "documentation": []}, {"name": "cdisc_rules_engine.models.dictionaries.medrt.terms_factory.MEDRTTermsFactory.install_terms", "asynchronous": false, "params": [{"name": "self", "type": null, "default": null}, {"name": "directory_path", "type": {"name": "str", "xref": {"fqname": "functions.str", "project": "--std--"}, "params": null}, "default": null}], "returns": {"name": "ExternalDictionary", "xref": {"fqname": "cdisc_rules_engine.models.dictionaries.base_external_dictionary.ExternalDictionary", "project": null}, "params": null}, "documentation": ["Create MEDRT dictionary terms from files in directory."]}, {"name": "cdisc_rules_engine.models.dictionaries.medrt.terms_factory.MEDRTTermsFactory._parse_term", "asynchronous": false, "params": [{"name": "self", "type": null, "default": null}, {"name": "term_xml", "type": {"name": "ElementTree", "xref": {"fqname": "xml.etree.ElementTree", "project": "--std--"}, "params": null}, "default": null}], "returns": {"name": "MEDRTTerm", "xref": {"fqname": "cdisc_rules_engine.models.dictionaries.medrt.term.MEDRTTerm", "project": null}, "params": null}, "documentation": []}, {"name": "cdisc_rules_engine.models.dictionaries.medrt.terms_factory.MEDRTTermsFactory._parse_concept", "asynchronous": false, "params": [{"name": "self", "type": null, "default": null}, {"name": "concept_xml", "type": {"name": "ElementTree", "xref": {"fqname": "xml.etree.ElementTree", "project": "--std--"}, "params": null}, "default": null}], "returns": {"name": "MEDRTConcept", "xref": {"fqname": "cdisc_rules_engine.models.dictionaries.medrt.term.MEDRTConcept", "project": null}, "params": null}, "documentation": []}, {"name": "cdisc_rules_engine.models.dictionaries.medrt.terms_factory.MEDRTTermsFactory._get_element_attribute", "asynchronous": false, "params": [{"name": "self", "type": null, "default": null}, {"name": "element", "type": {"name": "ElementTree", "xref": {"fqname": "xml.etree.ElementTree", "project": "--std--"}, "params": null}, "default": null}, {"name": "attribute_name", "type": {"name": "str", "xref": {"fqname": "functions.str", "project": "--std--"}, "params": null}, "default": null}], "returns": {"name": "str", "xref": {"fqname": "functions.str", "project": "--std--"}, "params": null}, "documentation": []}, {"name": "cdisc_rules_engine.models.dictionaries.medrt.terms_factory.MEDRTTermsFactory.get_version", "asynchronous": false, "params": [{"name": "self", "type": null, "default": null}, {"name": "directory_path", "type": null, "default": null}], "returns": {"name": "str", "xref": {"fqname": "functions.str", "project": "--std--"}, "params": null}, "documentation": []}, {"name": "cdisc_rules_engine.models.dictionaries.medrt.terms_factory.MEDRTTermsFactory._get_root", "asynchronous": false, "params": [{"name": "self", "type": null, "default": null}, {"name": "file_path", "type": {"name": "str", "xref": {"fqname": "functions.str", "project": "--std--"}, "params": null}, "default": null}], "returns": {"name": "ElementTree", "xref": {"fqname": "xml.etree.ElementTree", "project": "--std--"}, "params": null}, "documentation": []}, {"name": "cdisc_rules_engine.models.dictionaries.medrt.terms_factory.MEDRTTermsFactory._read_version", "asynchronous": false, "params": [{"name": "self", "type": null, "default": null}, {"name": "root", "type": {"name": "ElementTree", "xref": {"fqname": "xml.etree.ElementTree", "project": "--std--"}, "params": null}, "default": null}], "returns": {"name": "str", "xref": {"fqname": "functions.str", "project": "--std--"}, "params": null}, "documentation": []}, {"name": "cdisc_rules_engine.models.dictionaries.medrt.terms_factory.MEDRTTermsFactory._get_dictionary_path", "asynchronous": false, "params": [{"name": "self", "type": null, "default": null}, {"name": "directory_path", "type": {"name": "str", "xref": {"fqname": "functions.str", "project": "--std--"}, "params": null}, "default": null}], "returns": {"name": "str", "xref": {"fqname": "functions.str", "project": "--std--"}, "params": null}, "documentation": []}], "class_variables": [], "instance_variables": [], "inner_classes": [], "documentation": ["This class is a factory that accepts file name\nand contents and creates a term record for each line."]}], "exports": []}, {"name": "cdisc_rules_engine.models.dictionaries.meddra", "documentation": ["This module contains DB models related\nto MedDra dictionaries."], "functions": [], "variables": [], "classes": [], "exports": [{"name": "cdisc_rules_engine.models.dictionaries.meddra.MedDRATermsFactory", "xref": {"fqname": "cdisc_rules_engine.models.dictionaries.meddra.meddra_terms_factory.MedDRATermsFactory", "project": null}}]}, {"name": "cdisc_rules_engine.models.dictionaries.medrt.validator", "documentation": [], "functions": [], "variables": [], "classes": [{"name": "cdisc_rules_engine.models.dictionaries.medrt.validator.MEDRTValidator", "bases": ["BaseDictionaryValidator"], "methods": [{"name": "cdisc_rules_engine.models.dictionaries.medrt.validator.MEDRTValidator.__init__", "asynchronous": false, "params": [{"name": "self", "type": null, "default": null}, {"name": "data_service", "type": {"name": "DataServiceInterface", "xref": {"fqname": "cdisc_rules_engine.interfaces.data_service_interface.DataServiceInterface", "project": null}, "params": null}, "default": "..."}, {"name": "cache_service", "type": {"name": "CacheServiceInterface", "xref": {"fqname": "cdisc_rules_engine.interfaces.cache_service_interface.CacheServiceInterface", "project": null}, "params": null}, "default": "..."}, {"name": "dictionary_path", "type": {"name": "str", "xref": {"fqname": "functions.str", "project": "--std--"}, "params": null}, "default": "..."}, {"name": "**kwargs", "type": null, "default": null}], "returns": null, "documentation": []}, {"name": "cdisc_rules_engine.models.dictionaries.medrt.validator.MEDRTValidator.is_valid_term", "asynchronous": false, "params": [{"name": "self", "type": null, "default": null}, {"name": "term", "type": {"name": "str", "xref": {"fqname": "functions.str", "project": "--std--"}, "params": null}, "default": null}, {"name": "term_type", "type": {"name": "str", "xref": {"fqname": "functions.str", "project": "--std--"}, "params": null}, "default": null}, {"name": "variable", "type": {"name": "str", "xref": {"fqname": "functions.str", "project": "--std--"}, "params": null}, "default": null}, {"name": "**kwargs", "type": null, "default": null}], "returns": {"name": "bool", "xref": {"fqname": "functions.bool", "project": "--std--"}, "params": null}, "documentation": []}, {"name": "cdisc_rules_engine.models.dictionaries.medrt.validator.MEDRTValidator.is_valid_code", "asynchronous": false, "params": [{"name": "self", "type": null, "default": null}, {"name": "code", "type": {"name": "str", "xref": {"fqname": "functions.str", "project": "--std--"}, "params": null}, "default": null}, {"name": "term_type", "type": {"name": "str", "xref": {"fqname": "functions.str", "project": "--std--"}, "params": null}, "default": null}, {"name": "variable", "type": {"name": "str", "xref": {"fqname": "functions.str", "project": "--std--"}, "params": null}, "default": null}, {"name": "codes", "type": null, "default": "..."}, {"name": "**kwargs", "type": null, "default": null}], "returns": {"name": "bool", "xref": {"fqname": "functions.bool", "project": "--std--"}, "params": null}, "documentation": []}, {"name": "cdisc_rules_engine.models.dictionaries.medrt.validator.MEDRTValidator.is_valid_code_term_pair", "asynchronous": false, "params": [{"name": "self", "type": null, "default": null}, {"name": "row", "type": null, "default": null}, {"name": "term_var", "type": null, "default": null}, {"name": "code_var", "type": null, "default": null}, {"name": "codes", "type": null, "default": "..."}], "returns": {"name": "bool", "xref": {"fqname": "functions.bool", "project": "--std--"}, "params": null}, "documentation": []}], "class_variables": [], "instance_variables": [], "inner_classes": [], "documentation": []}], "exports": []}, {"name": "cdisc_rules_engine.models.dictionaries.meddra.meddra_file_names", "documentation": [], "functions": [], "variables": [], "classes": [{"name": "cdisc_rules_engine.models.dictionaries.meddra.meddra_file_names.MeddraFileNames", "bases": ["BaseEnum"], "methods": [], "class_variables": [{"name": "cdisc_rules_engine.models.dictionaries.meddra.meddra_file_names.MeddraFileNames.PT", "type": null, "documentation": []}, {"name": "cdisc_rules_engine.models.dictionaries.meddra.meddra_file_names.MeddraFileNames.HLT", "type": null, "documentation": []}, {"name": "cdisc_rules_engine.models.dictionaries.meddra.meddra_file_names.MeddraFileNames.LLT", "type": null, "documentation": []}, {"name": "cdisc_rules_engine.models.dictionaries.meddra.meddra_file_names.MeddraFileNames.SOC", "type": null, "documentation": []}, {"name": "cdisc_rules_engine.models.dictionaries.meddra.meddra_file_names.MeddraFileNames.HLGT", "type": null, "documentation": []}, {"name": "cdisc_rules_engine.models.dictionaries.meddra.meddra_file_names.MeddraFileNames.SOC_HLGT", "type": null, "documentation": []}, {"name": "cdisc_rules_engine.models.dictionaries.meddra.meddra_file_names.MeddraFileNames.HLGT_HLT", "type": null, "documentation": []}, {"name": "cdisc_rules_engine.models.dictionaries.meddra.meddra_file_names.MeddraFileNames.HLT_PT", "type": null, "documentation": []}, {"name": "cdisc_rules_engine.models.dictionaries.meddra.meddra_file_names.MeddraFileNames.VERSION", "type": null, "documentation": []}], "instance_variables": [], "inner_classes": [], "documentation": []}], "exports": []}, {"name": "cdisc_rules_engine.models.dictionaries.meddra.terms.term_types", "documentation": [], "functions": [], "variables": [], "classes": [{"name": "cdisc_rules_engine.models.dictionaries.meddra.terms.term_types.TermTypes", "bases": ["BaseEnum"], "methods": [], "class_variables": [{"name": "cdisc_rules_engine.models.dictionaries.meddra.terms.term_types.TermTypes.SOC", "type": null, "documentation": []}, {"name": "cdisc_rules_engine.models.dictionaries.meddra.terms.term_types.TermTypes.LLT", "type": null, "documentation": []}, {"name": "cdisc_rules_engine.models.dictionaries.meddra.terms.term_types.TermTypes.HLGT", "type": null, "documentation": []}, {"name": "cdisc_rules_engine.models.dictionaries.meddra.terms.term_types.TermTypes.PT", "type": null, "documentation": []}, {"name": "cdisc_rules_engine.models.dictionaries.meddra.terms.term_types.TermTypes.HLT", "type": null, "documentation": []}], "instance_variables": [], "inner_classes": [], "documentation": ["This enum holds all available meddra term types."]}], "exports": []}, {"name": "cdisc_rules_engine.models.dictionaries.meddra.terms", "documentation": [], "functions": [], "variables": [], "classes": [], "exports": []}, {"name": "cdisc_rules_engine.models.dictionaries.meddra.terms.meddra_term", "documentation": [], "functions": [], "variables": [], "classes": [{"name": "cdisc_rules_engine.models.dictionaries.meddra.terms.meddra_term.MedDRATerm", "bases": ["DictionaryTermInterface"], "methods": [{"name": "cdisc_rules_engine.models.dictionaries.meddra.terms.meddra_term.MedDRATerm.__init__", "asynchronous": false, "params": [{"name": "self", "type": null, "default": null}, {"name": "record_params", "type": null, "default": null}], "returns": null, "documentation": []}, {"name": "cdisc_rules_engine.models.dictionaries.meddra.terms.meddra_term.MedDRATerm.set_parent", "asynchronous": false, "params": [{"name": "self", "type": null, "default": null}, {"name": "parent", "type": {"name": "MedDRATerm", "xref": {"fqname": "cdisc_rules_engine.models.dictionaries.meddra.terms.meddra_term.MedDRATerm", "project": null}, "params": null}, "default": null}], "returns": null, "documentation": ["Set parent code and term."]}, {"name": "cdisc_rules_engine.models.dictionaries.meddra.terms.meddra_term.MedDRATerm.get_identifier", "asynchronous": false, "params": [{"name": "self", "type": null, "default": null}], "returns": null, "documentation": []}, {"name": "cdisc_rules_engine.models.dictionaries.meddra.terms.meddra_term.MedDRATerm.get_code_hierarchies", "asynchronous": false, "params": [{"name": "terms", "type": {"name": "dict", "xref": {"fqname": "functions.dict", "project": "--std--"}, "params": null}, "default": null}], "returns": {"name": "set", "xref": {"fqname": "functions.set", "project": "--std--"}, "params": null}, "documentation": []}, {"name": "cdisc_rules_engine.models.dictionaries.meddra.terms.meddra_term.MedDRATerm.get_term_hierarchies", "asynchronous": false, "params": [{"name": "terms", "type": {"name": "dict", "xref": {"fqname": "functions.dict", "project": "--std--"}, "params": null}, "default": null}], "returns": {"name": "set", "xref": {"fqname": "functions.set", "project": "--std--"}, "params": null}, "documentation": []}, {"name": "cdisc_rules_engine.models.dictionaries.meddra.terms.meddra_term.MedDRATerm.get_code_term_pairs", "asynchronous": false, "params": [{"name": "terms", "type": {"name": "dict", "xref": {"fqname": "functions.dict", "project": "--std--"}, "params": null}, "default": null}], "returns": {"name": "dict", "xref": {"fqname": "functions.dict", "project": "--std--"}, "params": null}, "documentation": []}], "class_variables": [], "instance_variables": [], "inner_classes": [], "documentation": []}], "exports": []}, {"name": "cdisc_rules_engine.models.dictionaries.meddra.meddra_validator", "documentation": [], "functions": [], "variables": [], "classes": [{"name": "cdisc_rules_engine.models.dictionaries.meddra.meddra_validator.MedDRAValidator", "bases": ["BaseDictionaryValidator"], "methods": [{"name": "cdisc_rules_engine.models.dictionaries.meddra.meddra_validator.MedDRAValidator.__init__", "asynchronous": false, "params": [{"name": "self", "type": null, "default": null}, {"name": "data_service", "type": {"name": "DataServiceInterface", "xref": {"fqname": "cdisc_rules_engine.interfaces.data_service_interface.DataServiceInterface", "project": null}, "params": null}, "default": "..."}, {"name": "cache_service", "type": {"name": "CacheServiceInterface", "xref": {"fqname": "cdisc_rules_engine.interfaces.cache_service_interface.CacheServiceInterface", "project": null}, "params": null}, "default": "..."}, {"name": "dictionary_path", "type": {"name": "str", "xref": {"fqname": "functions.str", "project": "--std--"}, "params": null}, "default": "..."}, {"name": "**kwargs", "type": null, "default": null}], "returns": null, "documentation": []}, {"name": "cdisc_rules_engine.models.dictionaries.meddra.meddra_validator.MedDRAValidator.is_valid_term", "asynchronous": false, "params": [{"name": "self", "type": null, "default": null}, {"name": "term", "type": {"name": "str", "xref": {"fqname": "functions.str", "project": "--std--"}, "params": null}, "default": null}, {"name": "term_type", "type": {"name": "str", "xref": {"fqname": "functions.str", "project": "--std--"}, "params": null}, "default": null}, {"name": "variable", "type": {"name": "str", "xref": {"fqname": "functions.str", "project": "--std--"}, "params": null}, "default": null}, {"name": "**kwargs", "type": null, "default": null}], "returns": {"name": "bool", "xref": {"fqname": "functions.bool", "project": "--std--"}, "params": null}, "documentation": ["Method to identify whether a term is valid based on its term type.\n\nArgs:\n    term_dictionary: The dictionary of available terms. Ex:\n        {\n            \"soc\": {\n                <soc term code>: instance of MedDRATerm\n                ...\n            },\n            \"hlt\": {\n                <high level term code>: instance of MedDRATerm\n                ...\n            }\n            ...\n        }\n    term: The dictionary term used\n    term_type: The term type to validate against\n    variable: The variable used to source the term data\n    kwargs: Additional validator specific variables\n\nReturns:\n    True: The term is valid\n    False: The term is not valid"]}, {"name": "cdisc_rules_engine.models.dictionaries.meddra.meddra_validator.MedDRAValidator.is_valid_code", "asynchronous": false, "params": [{"name": "self", "type": null, "default": null}, {"name": "code", "type": {"name": "str", "xref": {"fqname": "functions.str", "project": "--std--"}, "params": null}, "default": null}, {"name": "term_type", "type": {"name": "str", "xref": {"fqname": "functions.str", "project": "--std--"}, "params": null}, "default": null}, {"name": "variable", "type": {"name": "str", "xref": {"fqname": "functions.str", "project": "--std--"}, "params": null}, "default": null}, {"name": "codes", "type": null, "default": "..."}, {"name": "**kwargs", "type": null, "default": null}], "returns": {"name": "bool", "xref": {"fqname": "functions.bool", "project": "--std--"}, "params": null}, "documentation": ["Method to identify whether a term is valid based on its term type.\n\nArgs:\n    term_dictionary: The dictionary of available terms. Ex:\n        {\n            \"soc\": {\n                <soc term code>: instance of MedDRATerm\n                ...\n            },\n            \"hlt\": {\n                <high level term code>: instance of MedDRATerm\n                ...\n            }\n            ...\n        }\n    term: The dictionary term used\n    term_type: The term type to validate against\n    variable: The variable used to source the term data\n    kwargs: Additional validator specific variables\n\nReturns:\n    True: The term is valid\n    False: The term is not valid"]}], "class_variables": [], "instance_variables": [], "inner_classes": [], "documentation": []}], "exports": []}, {"name": "cdisc_rules_engine.models.dictionaries.meddra.meddra_terms_factory", "documentation": [], "functions": [], "variables": [], "classes": [{"name": "cdisc_rules_engine.models.dictionaries.meddra.meddra_terms_factory.MedDRATermsFactory", "bases": ["TermsFactoryInterface"], "methods": [{"name": "cdisc_rules_engine.models.dictionaries.meddra.meddra_terms_factory.MedDRATermsFactory.__init__", "asynchronous": false, "params": [{"name": "self", "type": null, "default": null}, {"name": "data_service", "type": {"name": "DataServiceInterface", "xref": {"fqname": "cdisc_rules_engine.interfaces.DataServiceInterface", "project": null}, "params": null}, "default": null}, {"name": "**kwargs", "type": null, "default": null}], "returns": null, "documentation": []}, {"name": "cdisc_rules_engine.models.dictionaries.meddra.meddra_terms_factory.MedDRATermsFactory.get_version", "asynchronous": false, "params": [{"name": "self", "type": null, "default": null}, {"name": "directory_path", "type": {"name": "str", "xref": {"fqname": "functions.str", "project": "--std--"}, "params": null}, "default": null}], "returns": {"name": "str", "xref": {"fqname": "functions.str", "project": "--std--"}, "params": null}, "documentation": []}, {"name": "cdisc_rules_engine.models.dictionaries.meddra.meddra_terms_factory.MedDRATermsFactory.install_terms", "asynchronous": false, "params": [{"name": "self", "type": null, "default": null}, {"name": "directory_path", "type": {"name": "str", "xref": {"fqname": "functions.str", "project": "--std--"}, "params": null}, "default": null}], "returns": {"name": "ExternalDictionary", "xref": {"fqname": "cdisc_rules_engine.models.dictionaries.base_external_dictionary.ExternalDictionary", "project": null}, "params": null}, "documentation": ["Create MedDRA dictionary terms from files in directory."]}, {"name": "cdisc_rules_engine.models.dictionaries.meddra.meddra_terms_factory.MedDRATermsFactory.read_data", "asynchronous": false, "params": [{"name": "self", "type": null, "default": null}, {"name": "file_path", "type": null, "default": null}, {"name": "data_type", "type": {"name": "str", "xref": {"fqname": "functions.str", "project": "--std--"}, "params": null}, "default": null}], "returns": {"name": "dict", "xref": {"fqname": "functions.dict", "project": "--std--"}, "params": null}, "documentation": ["Parse file and generate appropriate MedDRATerms"]}, {"name": "cdisc_rules_engine.models.dictionaries.meddra.meddra_terms_factory.MedDRATermsFactory.update_relationship_data", "asynchronous": false, "params": [{"name": "self", "type": null, "default": null}, {"name": "directory_path", "type": {"name": "str", "xref": {"fqname": "functions.str", "project": "--std--"}, "params": null}, "default": null}, {"name": "file_name", "type": {"name": "str", "xref": {"fqname": "functions.str", "project": "--std--"}, "params": null}, "default": null}, {"name": "data", "type": {"name": "dict", "xref": {"fqname": "functions.dict", "project": "--std--"}, "params": null}, "default": null}], "returns": {"name": "dict", "xref": {"fqname": "functions.dict", "project": "--std--"}, "params": null}, "documentation": ["Iterates over lines in a relationship file, and sets the\nparent relationship on the appropriate term"]}, {"name": "cdisc_rules_engine.models.dictionaries.meddra.meddra_terms_factory.MedDRATermsFactory._parse_pt_item", "asynchronous": false, "params": [{"name": "self", "type": null, "default": null}, {"name": "item", "type": {"name": "str", "xref": {"fqname": "functions.str", "project": "--std--"}, "params": null}, "default": null}], "returns": {"name": "MedDRATerm", "xref": {"fqname": "cdisc_rules_engine.models.dictionaries.meddra.terms.meddra_term.MedDRATerm", "project": null}, "params": null}, "documentation": ["Parses a row from pt.asc and creates a MedDRATerm"]}, {"name": "cdisc_rules_engine.models.dictionaries.meddra.meddra_terms_factory.MedDRATermsFactory._parse_hlt_item", "asynchronous": false, "params": [{"name": "self", "type": null, "default": null}, {"name": "item", "type": {"name": "str", "xref": {"fqname": "functions.str", "project": "--std--"}, "params": null}, "default": null}], "returns": {"name": "MedDRATerm", "xref": {"fqname": "cdisc_rules_engine.models.dictionaries.meddra.terms.meddra_term.MedDRATerm", "project": null}, "params": null}, "documentation": ["Parses a row from hlt.asc and creates a MedDRATerm"]}, {"name": "cdisc_rules_engine.models.dictionaries.meddra.meddra_terms_factory.MedDRATermsFactory._parse_llt_item", "asynchronous": false, "params": [{"name": "self", "type": null, "default": null}, {"name": "item", "type": {"name": "str", "xref": {"fqname": "functions.str", "project": "--std--"}, "params": null}, "default": null}], "returns": {"name": "MedDRATerm", "xref": {"fqname": "cdisc_rules_engine.models.dictionaries.meddra.terms.meddra_term.MedDRATerm", "project": null}, "params": null}, "documentation": ["Parses a row from llt.asc and creates a MedDRATerm"]}, {"name": "cdisc_rules_engine.models.dictionaries.meddra.meddra_terms_factory.MedDRATermsFactory._parse_hlgt_item", "asynchronous": false, "params": [{"name": "self", "type": null, "default": null}, {"name": "item", "type": {"name": "str", "xref": {"fqname": "functions.str", "project": "--std--"}, "params": null}, "default": null}], "returns": {"name": "MedDRATerm", "xref": {"fqname": "cdisc_rules_engine.models.dictionaries.meddra.terms.meddra_term.MedDRATerm", "project": null}, "params": null}, "documentation": ["Parses a row from hlgt.asc and creates a MedDRATerm"]}, {"name": "cdisc_rules_engine.models.dictionaries.meddra.meddra_terms_factory.MedDRATermsFactory._parse_soc_item", "asynchronous": false, "params": [{"name": "self", "type": null, "default": null}, {"name": "item", "type": {"name": "bytes", "xref": {"fqname": "functions.bytes", "project": "--std--"}, "params": null}, "default": null}], "returns": {"name": "MedDRATerm", "xref": {"fqname": "cdisc_rules_engine.models.dictionaries.meddra.terms.meddra_term.MedDRATerm", "project": null}, "params": null}, "documentation": ["Parses a row from soc.asc and creates a MedDRATerm"]}], "class_variables": [], "instance_variables": [], "inner_classes": [], "documentation": ["This class is a factory that accepts file name\nand contents and creates a term record for each line."]}], "exports": []}, {"name": "cdisc_rules_engine.models.dictionaries.meddra.meddra_variables", "documentation": [], "functions": [], "variables": [], "classes": [{"name": "cdisc_rules_engine.models.dictionaries.meddra.meddra_variables.MedDRAVariables", "bases": ["BaseEnum"], "methods": [], "class_variables": [{"name": "cdisc_rules_engine.models.dictionaries.meddra.meddra_variables.MedDRAVariables.SOCCD", "type": null, "documentation": []}, {"name": "cdisc_rules_engine.models.dictionaries.meddra.meddra_variables.MedDRAVariables.HLGTCD", "type": null, "documentation": []}, {"name": "cdisc_rules_engine.models.dictionaries.meddra.meddra_variables.MedDRAVariables.HLTCD", "type": null, "documentation": []}, {"name": "cdisc_rules_engine.models.dictionaries.meddra.meddra_variables.MedDRAVariables.LLTCD", "type": null, "documentation": []}, {"name": "cdisc_rules_engine.models.dictionaries.meddra.meddra_variables.MedDRAVariables.PTCD", "type": null, "documentation": []}, {"name": "cdisc_rules_engine.models.dictionaries.meddra.meddra_variables.MedDRAVariables.DECOD", "type": null, "documentation": []}, {"name": "cdisc_rules_engine.models.dictionaries.meddra.meddra_variables.MedDRAVariables.SOC", "type": null, "documentation": []}, {"name": "cdisc_rules_engine.models.dictionaries.meddra.meddra_variables.MedDRAVariables.HLGT", "type": null, "documentation": []}, {"name": "cdisc_rules_engine.models.dictionaries.meddra.meddra_variables.MedDRAVariables.HLT", "type": null, "documentation": []}, {"name": "cdisc_rules_engine.models.dictionaries.meddra.meddra_variables.MedDRAVariables.LLT", "type": null, "documentation": []}, {"name": "cdisc_rules_engine.models.dictionaries.meddra.meddra_variables.MedDRAVariables.BODSYS", "type": null, "documentation": []}, {"name": "cdisc_rules_engine.models.dictionaries.meddra.meddra_variables.MedDRAVariables.BDSYSCD", "type": null, "documentation": []}], "instance_variables": [], "inner_classes": [], "documentation": []}], "exports": []}, {"name": "cdisc_rules_engine.models.dictionaries", "documentation": ["This module contains DB models related\nto dictionaries like WhoDrug, MedDra etc."], "functions": [], "variables": [], "classes": [], "exports": [{"name": "cdisc_rules_engine.models.dictionaries.AbstractTermsFactory", "xref": {"fqname": "cdisc_rules_engine.models.dictionaries.abstract_factory.AbstractTermsFactory", "project": null}}, {"name": "cdisc_rules_engine.models.dictionaries.DictionaryTypes", "xref": {"fqname": "cdisc_rules_engine.models.dictionaries.dictionary_types.DictionaryTypes", "project": null}}, {"name": "cdisc_rules_engine.models.dictionaries.ExternalDictionary", "xref": {"fqname": "cdisc_rules_engine.models.dictionaries.base_external_dictionary.ExternalDictionary", "project": null}}]}, {"name": "cdisc_rules_engine.models.dictionaries.get_dictionary_terms", "documentation": [], "functions": [{"name": "cdisc_rules_engine.models.dictionaries.get_dictionary_terms.extract_dictionary_terms", "asynchronous": false, "params": [{"name": "data_service", "type": {"name": "DataServiceInterface", "xref": {"fqname": "cdisc_rules_engine.interfaces.DataServiceInterface", "project": null}, "params": null}, "default": null}, {"name": "dictionary_type", "type": {"name": "DictionaryTypes", "xref": {"fqname": "cdisc_rules_engine.models.dictionaries.get_dictionary_terms..DictionaryTypes", "project": null}, "params": null}, "default": null}, {"name": "dictionaries_directory", "type": {"name": "str", "xref": {"fqname": "functions.str", "project": "--std--"}, "params": null}, "default": null}], "returns": {"name": "ExternalDictionary", "xref": {"fqname": "cdisc_rules_engine.models.dictionaries.get_dictionary_terms..ExternalDictionary", "project": null}, "params": null}, "documentation": ["Extract dictionary terms from provided directory"]}], "variables": [], "classes": [], "exports": []}, {"name": "cdisc_rules_engine.models.dictionaries.base_external_dictionary", "documentation": [], "functions": [], "variables": [], "classes": [{"name": "cdisc_rules_engine.models.dictionaries.base_external_dictionary.ExternalDictionary", "bases": [], "methods": [{"name": "cdisc_rules_engine.models.dictionaries.base_external_dictionary.ExternalDictionary.__init__", "asynchronous": false, "params": [{"name": "self", "type": null, "default": null}, {"name": "terms", "type": {"name": "dict", "xref": {"fqname": "functions.dict", "project": "--std--"}, "params": null}, "default": "..."}, {"name": "version", "type": {"name": "str", "xref": {"fqname": "functions.str", "project": "--std--"}, "params": null}, "default": "..."}], "returns": null, "documentation": []}, {"name": "cdisc_rules_engine.models.dictionaries.base_external_dictionary.ExternalDictionary.version", "asynchronous": false, "params": [{"name": "self", "type": null, "default": null}], "returns": null, "documentation": []}, {"name": "cdisc_rules_engine.models.dictionaries.base_external_dictionary.ExternalDictionary.__getitem__", "asynchronous": false, "params": [{"name": "self", "type": null, "default": null}, {"name": "key", "type": null, "default": null}], "returns": null, "documentation": []}, {"name": "cdisc_rules_engine.models.dictionaries.base_external_dictionary.ExternalDictionary.__contains__", "asynchronous": false, "params": [{"name": "self", "type": null, "default": null}, {"name": "key", "type": null, "default": null}], "returns": null, "documentation": []}, {"name": "cdisc_rules_engine.models.dictionaries.base_external_dictionary.ExternalDictionary.__iter__", "asynchronous": false, "params": [{"name": "self", "type": null, "default": null}], "returns": null, "documentation": []}, {"name": "cdisc_rules_engine.models.dictionaries.base_external_dictionary.ExternalDictionary.items", "asynchronous": false, "params": [{"name": "self", "type": null, "default": null}], "returns": null, "documentation": []}, {"name": "cdisc_rules_engine.models.dictionaries.base_external_dictionary.ExternalDictionary.get", "asynchronous": false, "params": [{"name": "self", "type": null, "default": null}, {"name": "key", "type": null, "default": null}, {"name": "default", "type": null, "default": "..."}], "returns": null, "documentation": []}, {"name": "cdisc_rules_engine.models.dictionaries.base_external_dictionary.ExternalDictionary.values", "asynchronous": false, "params": [{"name": "self", "type": null, "default": null}], "returns": null, "documentation": []}], "class_variables": [], "instance_variables": [], "inner_classes": [], "documentation": []}], "exports": []}, {"name": "cdisc_rules_engine.models.dictionaries.unii", "documentation": ["This module contains models related\nto UNII dictionaries."], "functions": [], "variables": [], "classes": [], "exports": [{"name": "cdisc_rules_engine.models.dictionaries.unii.UNIITermsFactory", "xref": {"fqname": "cdisc_rules_engine.models.dictionaries.unii.terms_factory.UNIITermsFactory", "project": null}}]}, {"name": "cdisc_rules_engine.models.dictionaries.unii.validator", "documentation": [], "functions": [], "variables": [], "classes": [{"name": "cdisc_rules_engine.models.dictionaries.unii.validator.UNIIValidator", "bases": ["BaseDictionaryValidator"], "methods": [{"name": "cdisc_rules_engine.models.dictionaries.unii.validator.UNIIValidator.__init__", "asynchronous": false, "params": [{"name": "self", "type": null, "default": null}, {"name": "data_service", "type": {"name": "DataServiceInterface", "xref": {"fqname": "cdisc_rules_engine.interfaces.data_service_interface.DataServiceInterface", "project": null}, "params": null}, "default": "..."}, {"name": "cache_service", "type": {"name": "CacheServiceInterface", "xref": {"fqname": "cdisc_rules_engine.interfaces.cache_service_interface.CacheServiceInterface", "project": null}, "params": null}, "default": "..."}, {"name": "dictionary_path", "type": {"name": "str", "xref": {"fqname": "functions.str", "project": "--std--"}, "params": null}, "default": "..."}, {"name": "**kwargs", "type": null, "default": null}], "returns": null, "documentation": []}, {"name": "cdisc_rules_engine.models.dictionaries.unii.validator.UNIIValidator.is_valid_term", "asynchronous": false, "params": [{"name": "self", "type": null, "default": null}, {"name": "term", "type": {"name": "str", "xref": {"fqname": "functions.str", "project": "--std--"}, "params": null}, "default": null}, {"name": "term_type", "type": {"name": "str", "xref": {"fqname": "functions.str", "project": "--std--"}, "params": null}, "default": null}, {"name": "variable", "type": {"name": "str", "xref": {"fqname": "functions.str", "project": "--std--"}, "params": null}, "default": null}, {"name": "**kwargs", "type": null, "default": null}], "returns": {"name": "bool", "xref": {"fqname": "functions.bool", "project": "--std--"}, "params": null}, "documentation": []}, {"name": "cdisc_rules_engine.models.dictionaries.unii.validator.UNIIValidator.is_valid_code", "asynchronous": false, "params": [{"name": "self", "type": null, "default": null}, {"name": "code", "type": {"name": "str", "xref": {"fqname": "functions.str", "project": "--std--"}, "params": null}, "default": null}, {"name": "term_type", "type": {"name": "str", "xref": {"fqname": "functions.str", "project": "--std--"}, "params": null}, "default": null}, {"name": "variable", "type": {"name": "str", "xref": {"fqname": "functions.str", "project": "--std--"}, "params": null}, "default": null}, {"name": "codes", "type": null, "default": "..."}, {"name": "**kwargs", "type": null, "default": null}], "returns": {"name": "bool", "xref": {"fqname": "functions.bool", "project": "--std--"}, "params": null}, "documentation": []}, {"name": "cdisc_rules_engine.models.dictionaries.unii.validator.UNIIValidator.is_valid_code_term_pair", "asynchronous": false, "params": [{"name": "self", "type": null, "default": null}, {"name": "row", "type": null, "default": null}, {"name": "term_var", "type": null, "default": null}, {"name": "code_var", "type": null, "default": null}, {"name": "codes", "type": null, "default": "..."}], "returns": {"name": "bool", "xref": {"fqname": "functions.bool", "project": "--std--"}, "params": null}, "documentation": []}], "class_variables": [], "instance_variables": [], "inner_classes": [], "documentation": []}], "exports": []}, {"name": "cdisc_rules_engine.models.dictionaries.unii.term", "documentation": [], "functions": [], "variables": [], "classes": [{"name": "cdisc_rules_engine.models.dictionaries.unii.term.UNIITerm", "bases": [], "methods": [{"name": "cdisc_rules_engine.models.dictionaries.unii.term.UNIITerm.__init__", "asynchronous": false, "params": [{"name": "self", "type": null, "default": null}, {"name": "unii", "type": {"name": "str", "xref": {"fqname": "functions.str", "project": "--std--"}, "params": null}, "default": null}, {"name": "display_name", "type": {"name": "str", "xref": {"fqname": "functions.str", "project": "--std--"}, "params": null}, "default": null}, {"name": "**term_params", "type": null, "default": null}], "returns": null, "documentation": []}], "class_variables": [], "instance_variables": [], "inner_classes": [], "documentation": []}], "exports": []}, {"name": "cdisc_rules_engine.models.dictionaries.unii.terms_factory", "documentation": [], "functions": [], "variables": [], "classes": [{"name": "cdisc_rules_engine.models.dictionaries.unii.terms_factory.UNIITermsFactory", "bases": ["TermsFactoryInterface"], "methods": [{"name": "cdisc_rules_engine.models.dictionaries.unii.terms_factory.UNIITermsFactory.__init__", "asynchronous": false, "params": [{"name": "self", "type": null, "default": null}, {"name": "data_service", "type": {"name": "DataServiceInterface", "xref": {"fqname": "cdisc_rules_engine.interfaces.DataServiceInterface", "project": null}, "params": null}, "default": null}, {"name": "**kwargs", "type": null, "default": null}], "returns": null, "documentation": []}, {"name": "cdisc_rules_engine.models.dictionaries.unii.terms_factory.UNIITermsFactory.install_terms", "asynchronous": false, "params": [{"name": "self", "type": null, "default": null}, {"name": "directory_path", "type": {"name": "str", "xref": {"fqname": "functions.str", "project": "--std--"}, "params": null}, "default": null}], "returns": {"name": "ExternalDictionary", "xref": {"fqname": "cdisc_rules_engine.models.dictionaries.base_external_dictionary.ExternalDictionary", "project": null}, "params": null}, "documentation": ["Create LOINC dictionary terms from files in directory."]}, {"name": "cdisc_rules_engine.models.dictionaries.unii.terms_factory.UNIITermsFactory.get_version", "asynchronous": false, "params": [{"name": "self", "type": null, "default": null}, {"name": "directory_path", "type": null, "default": null}], "returns": {"name": "str", "xref": {"fqname": "functions.str", "project": "--std--"}, "params": null}, "documentation": []}], "class_variables": [], "instance_variables": [], "inner_classes": [], "documentation": ["This class is a factory that accepts file name\nand contents and creates a term record for each line."]}], "exports": []}, {"name": "cdisc_rules_engine.models.dictionaries.dictionary_types", "documentation": [], "functions": [], "variables": [], "classes": [{"name": "cdisc_rules_engine.models.dictionaries.dictionary_types.DictionaryTypes", "bases": ["BaseEnum"], "methods": [], "class_variables": [{"name": "cdisc_rules_engine.models.dictionaries.dictionary_types.DictionaryTypes.MEDDRA", "type": null, "documentation": []}, {"name": "cdisc_rules_engine.models.dictionaries.dictionary_types.DictionaryTypes.WHODRUG", "type": null, "documentation": []}, {"name": "cdisc_rules_engine.models.dictionaries.dictionary_types.DictionaryTypes.LOINC", "type": null, "documentation": []}, {"name": "cdisc_rules_engine.models.dictionaries.dictionary_types.DictionaryTypes.MEDRT", "type": null, "documentation": []}, {"name": "cdisc_rules_engine.models.dictionaries.dictionary_types.DictionaryTypes.UNII", "type": null, "documentation": []}, {"name": "cdisc_rules_engine.models.dictionaries.dictionary_types.DictionaryTypes.SNOMED", "type": null, "documentation": []}], "instance_variables": [], "inner_classes": [], "documentation": ["This enum holds all available dictionary types."]}], "exports": []}, {"name": "cdisc_rules_engine.models.dictionaries.abstract_factory", "documentation": [], "functions": [], "variables": [], "classes": [{"name": "cdisc_rules_engine.models.dictionaries.abstract_factory.AbstractTermsFactory", "bases": ["FactoryInterface"], "methods": [{"name": "cdisc_rules_engine.models.dictionaries.abstract_factory.AbstractTermsFactory.__init__", "asynchronous": false, "params": [{"name": "self", "type": null, "default": null}, {"name": "data_service", "type": {"name": "DataServiceInterface", "xref": {"fqname": "cdisc_rules_engine.interfaces.DataServiceInterface", "project": null}, "params": null}, "default": null}], "returns": null, "documentation": []}, {"name": "cdisc_rules_engine.models.dictionaries.abstract_factory.AbstractTermsFactory.register_service", "asynchronous": false, "params": [{"name": "cls", "type": null, "default": null}, {"name": "name", "type": {"name": "str", "xref": {"fqname": "functions.str", "project": "--std--"}, "params": null}, "default": null}, {"name": "service", "type": {"name": "Type", "xref": {"fqname": "typing.Type", "project": "--std--"}, "params": [{"name": "TermsFactoryInterface", "xref": {"fqname": "cdisc_rules_engine.interfaces.TermsFactoryInterface", "project": null}, "params": null}]}, "default": null}], "returns": {"name": "None", "xref": {"fqname": "constants.None", "project": "--std--"}, "params": null}, "documentation": []}, {"name": "cdisc_rules_engine.models.dictionaries.abstract_factory.AbstractTermsFactory.get_service", "asynchronous": false, "params": [{"name": "self", "type": null, "default": null}, {"name": "name", "type": {"name": "str", "xref": {"fqname": "functions.str", "project": "--std--"}, "params": null}, "default": null}, {"name": "**kwargs", "type": null, "default": null}], "returns": {"name": "TermsFactoryInterface", "xref": {"fqname": "cdisc_rules_engine.interfaces.TermsFactoryInterface", "project": null}, "params": null}, "documentation": []}], "class_variables": [{"name": "cdisc_rules_engine.models.dictionaries.abstract_factory.AbstractTermsFactory._registered_services_map", "type": {"name": "dict", "xref": {"fqname": "functions.dict", "project": "--std--"}, "params": null}, "documentation": []}], "instance_variables": [], "inner_classes": [], "documentation": []}], "exports": []}, {"name": "cdisc_rules_engine.models.dictionaries.base_dictionary_validator", "documentation": [], "functions": [], "variables": [], "classes": [{"name": "cdisc_rules_engine.models.dictionaries.base_dictionary_validator.BaseDictionaryValidator", "bases": [], "methods": [{"name": "cdisc_rules_engine.models.dictionaries.base_dictionary_validator.BaseDictionaryValidator.is_valid_term", "asynchronous": false, "params": [{"name": "self", "type": null, "default": null}, {"name": "term", "type": {"name": "str", "xref": {"fqname": "functions.str", "project": "--std--"}, "params": null}, "default": null}, {"name": "term_type", "type": {"name": "str", "xref": {"fqname": "functions.str", "project": "--std--"}, "params": null}, "default": "..."}, {"name": "variable", "type": {"name": "str", "xref": {"fqname": "functions.str", "project": "--std--"}, "params": null}, "default": "..."}, {"name": "**kwargs", "type": null, "default": null}], "returns": {"name": "bool", "xref": {"fqname": "functions.bool", "project": "--std--"}, "params": null}, "documentation": ["Method to identify whether a term is valid based on its term type.\n\nArgs:\n    term: The dictionary term used\n    term_type: The component of the dictionary to validate against.\n    variable: The source variable of the term value.\n    kwargs: Additional validator specific variables\n\nReturns:\n    True: The term is valid\n    False: The term is not valid\n\n    Note: The definition of \"valid\" may be different for each dictionary."]}, {"name": "cdisc_rules_engine.models.dictionaries.base_dictionary_validator.BaseDictionaryValidator.is_valid_code", "asynchronous": false, "params": [{"name": "self", "type": null, "default": null}, {"name": "code", "type": {"name": "str", "xref": {"fqname": "functions.str", "project": "--std--"}, "params": null}, "default": null}, {"name": "term_type", "type": {"name": "str", "xref": {"fqname": "functions.str", "project": "--std--"}, "params": null}, "default": "..."}, {"name": "variable", "type": {"name": "str", "xref": {"fqname": "functions.str", "project": "--std--"}, "params": null}, "default": "..."}, {"name": "codes", "type": null, "default": "..."}, {"name": "**kwargs", "type": null, "default": null}], "returns": {"name": "bool", "xref": {"fqname": "functions.bool", "project": "--std--"}, "params": null}, "documentation": ["Method to identify whether a code is valid based on its term type.\n\nArgs:\n    code: The dictionary code used\n    term_type: The component of the dictionary to validate against.\n    variable: The source variable of the term value.\n    kwargs: Additional validator specific variables\n\nReturns:\n    True: The code is valid\n    False: The code is not valid\n\n    Note: The definition of \"valid\" may be different for each dictionary."]}, {"name": "cdisc_rules_engine.models.dictionaries.base_dictionary_validator.BaseDictionaryValidator.is_valid_code_term_pair", "asynchronous": false, "params": [{"name": "self", "type": null, "default": null}, {"name": "row", "type": null, "default": null}, {"name": "term_var", "type": null, "default": null}, {"name": "code_var", "type": null, "default": null}, {"name": "codes", "type": null, "default": "..."}], "returns": {"name": "bool", "xref": {"fqname": "functions.bool", "project": "--std--"}, "params": null}, "documentation": ["Method to identify whether a term in a dictionary matches the code used to specify it.\n\nArgs:\n    row: the dataframe row\n    term_var: The variable containing the term text\n    code_var: The variable containing the term code\nReturns:\n    True: The code matches the term.\n    False: The code does not match the term.\n\n    Note: The definition of \"matches\" may be different for each dictionary."]}, {"name": "cdisc_rules_engine.models.dictionaries.base_dictionary_validator.BaseDictionaryValidator.get_dictionary_version", "asynchronous": false, "params": [{"name": "self", "type": null, "default": null}], "returns": {"name": "str", "xref": {"fqname": "functions.str", "project": "--std--"}, "params": null}, "documentation": []}, {"name": "cdisc_rules_engine.models.dictionaries.base_dictionary_validator.BaseDictionaryValidator.get_term_dictionary", "asynchronous": false, "params": [{"name": "self", "type": null, "default": null}], "returns": null, "documentation": []}], "class_variables": [], "instance_variables": [], "inner_classes": [], "documentation": []}], "exports": []}, {"name": "cdisc_rules_engine.models.operation_params", "documentation": [], "functions": [], "variables": [], "classes": [{"name": "cdisc_rules_engine.models.operation_params.OperationParams", "bases": [], "methods": [], "class_variables": [{"name": "cdisc_rules_engine.models.operation_params.OperationParams.dataframe", "type": {"name": "pd.DataFrame", "xref": {"fqname": "pandas.DataFrame", "project": "pandas"}, "params": null}, "documentation": []}, {"name": "cdisc_rules_engine.models.operation_params.OperationParams.dataset_path", "type": {"name": "str", "xref": {"fqname": "functions.str", "project": "--std--"}, "params": null}, "documentation": []}, {"name": "cdisc_rules_engine.models.operation_params.OperationParams.datasets", "type": {"name": "List", "xref": {"fqname": "typing.List", "project": "--std--"}, "params": [{"name": "dict", "xref": {"fqname": "functions.dict", "project": "--std--"}, "params": null}]}, "documentation": []}, {"name": "cdisc_rules_engine.models.operation_params.OperationParams.domain", "type": {"name": "str", "xref": {"fqname": "functions.str", "project": "--std--"}, "params": null}, "documentation": []}, {"name": "cdisc_rules_engine.models.operation_params.OperationParams.directory_path", "type": {"name": "str", "xref": {"fqname": "functions.str", "project": "--std--"}, "params": null}, "documentation": []}, {"name": "cdisc_rules_engine.models.operation_params.OperationParams.operation_id", "type": {"name": "str", "xref": {"fqname": "functions.str", "project": "--std--"}, "params": null}, "documentation": []}, {"name": "cdisc_rules_engine.models.operation_params.OperationParams.operation_name", "type": {"name": "str", "xref": {"fqname": "functions.str", "project": "--std--"}, "params": null}, "documentation": []}, {"name": "cdisc_rules_engine.models.operation_params.OperationParams.standard", "type": {"name": "str", "xref": {"fqname": "functions.str", "project": "--std--"}, "params": null}, "documentation": []}, {"name": "cdisc_rules_engine.models.operation_params.OperationParams.standard_version", "type": {"name": "str", "xref": {"fqname": "functions.str", "project": "--std--"}, "params": null}, "documentation": []}, {"name": "cdisc_rules_engine.models.operation_params.OperationParams.attribute_name", "type": {"name": "str", "xref": {"fqname": "functions.str", "project": "--std--"}, "params": null}, "documentation": []}, {"name": "cdisc_rules_engine.models.operation_params.OperationParams.case_sensitive", "type": {"name": "bool", "xref": {"fqname": "functions.bool", "project": "--std--"}, "params": null}, "documentation": []}, {"name": "cdisc_rules_engine.models.operation_params.OperationParams.codelist", "type": {"name": "str", "xref": {"fqname": "functions.str", "project": "--std--"}, "params": null}, "documentation": []}, {"name": "cdisc_rules_engine.models.operation_params.OperationParams.codelists", "type": {"name": "list", "xref": {"fqname": "functions.list", "project": "--std--"}, "params": null}, "documentation": []}, {"name": "cdisc_rules_engine.models.operation_params.OperationParams.ct_attribute", "type": {"name": "str", "xref": {"fqname": "functions.str", "project": "--std--"}, "params": null}, "documentation": []}, {"name": "cdisc_rules_engine.models.operation_params.OperationParams.ct_package", "type": {"name": "list", "xref": {"fqname": "functions.list", "project": "--std--"}, "params": null}, "documentation": []}, {"name": "cdisc_rules_engine.models.operation_params.OperationParams.ct_packages", "type": {"name": "list", "xref": {"fqname": "functions.list", "project": "--std--"}, "params": null}, "documentation": []}, {"name": "cdisc_rules_engine.models.operation_params.OperationParams.ct_version", "type": {"name": "str", "xref": {"fqname": "functions.str", "project": "--std--"}, "params": null}, "documentation": []}, {"name": "cdisc_rules_engine.models.operation_params.OperationParams.dictionary_term_type", "type": {"name": "str", "xref": {"fqname": "functions.str", "project": "--std--"}, "params": null}, "documentation": []}, {"name": "cdisc_rules_engine.models.operation_params.OperationParams.external_dictionaries", "type": {"name": "ExternalDictionariesContainer", "xref": {"fqname": "cdisc_rules_engine.models.external_dictionaries_container.ExternalDictionariesContainer", "project": null}, "params": null}, "documentation": []}, {"name": "cdisc_rules_engine.models.operation_params.OperationParams.external_dictionary_term_variable", "type": {"name": "str", "xref": {"fqname": "functions.str", "project": "--std--"}, "params": null}, "documentation": []}, {"name": "cdisc_rules_engine.models.operation_params.OperationParams.external_dictionary_type", "type": {"name": "str", "xref": {"fqname": "functions.str", "project": "--std--"}, "params": null}, "documentation": []}, {"name": "cdisc_rules_engine.models.operation_params.OperationParams.filter", "type": {"name": "dict", "xref": {"fqname": "functions.dict", "project": "--std--"}, "params": null}, "documentation": []}, {"name": "cdisc_rules_engine.models.operation_params.OperationParams.grouping", "type": {"name": "List", "xref": {"fqname": "typing.List", "project": "--std--"}, "params": [{"name": "str", "xref": {"fqname": "functions.str", "project": "--std--"}, "params": null}]}, "documentation": []}, {"name": "cdisc_rules_engine.models.operation_params.OperationParams.grouping_aliases", "type": {"name": "List", "xref": {"fqname": "typing.List", "project": "--std--"}, "params": [{"name": "str", "xref": {"fqname": "functions.str", "project": "--std--"}, "params": null}]}, "documentation": []}, {"name": "cdisc_rules_engine.models.operation_params.OperationParams.key_name", "type": {"name": "str", "xref": {"fqname": "functions.str", "project": "--std--"}, "params": null}, "documentation": []}, {"name": "cdisc_rules_engine.models.operation_params.OperationParams.key_value", "type": {"name": "str", "xref": {"fqname": "functions.str", "project": "--std--"}, "params": null}, "documentation": []}, {"name": "cdisc_rules_engine.models.operation_params.OperationParams.level", "type": {"name": "str", "xref": {"fqname": "functions.str", "project": "--std--"}, "params": null}, "documentation": []}, {"name": "cdisc_rules_engine.models.operation_params.OperationParams.original_target", "type": {"name": "str", "xref": {"fqname": "functions.str", "project": "--std--"}, "params": null}, "documentation": []}, {"name": "cdisc_rules_engine.models.operation_params.OperationParams.returntype", "type": {"name": "str", "xref": {"fqname": "functions.str", "project": "--std--"}, "params": null}, "documentation": []}, {"name": "cdisc_rules_engine.models.operation_params.OperationParams.target", "type": {"name": "str", "xref": {"fqname": "functions.str", "project": "--std--"}, "params": null}, "documentation": []}], "instance_variables": [], "inner_classes": [], "documentation": ["This class defines input parameters for rule operations.\nRule operations are defined in DataProcessor class."]}], "exports": []}, {"name": "cdisc_rules_engine.models.external_dictionaries_container", "documentation": [], "functions": [], "variables": [{"name": "cdisc_rules_engine.models.external_dictionaries_container.DICTIONARY_VALIDATORS", "type": null, "documentation": []}], "classes": [{"name": "cdisc_rules_engine.models.external_dictionaries_container.ExternalDictionariesContainer", "bases": [], "methods": [{"name": "cdisc_rules_engine.models.external_dictionaries_container.ExternalDictionariesContainer.__init__", "asynchronous": false, "params": [{"name": "self", "type": null, "default": null}, {"name": "dictionary_path_mapping", "type": null, "default": "..."}], "returns": null, "documentation": []}, {"name": "cdisc_rules_engine.models.external_dictionaries_container.ExternalDictionariesContainer.is_valid_external_dictionary", "asynchronous": false, "params": [{"name": "self", "type": null, "default": null}, {"name": "dictionary_type", "type": {"name": "str", "xref": {"fqname": "functions.str", "project": "--std--"}, "params": null}, "default": null}], "returns": {"name": "bool", "xref": {"fqname": "functions.bool", "project": "--std--"}, "params": null}, "documentation": []}, {"name": "cdisc_rules_engine.models.external_dictionaries_container.ExternalDictionariesContainer.get_dictionary_path", "asynchronous": false, "params": [{"name": "self", "type": null, "default": null}, {"name": "dictionary_type", "type": {"name": "str", "xref": {"fqname": "functions.str", "project": "--std--"}, "params": null}, "default": null}], "returns": {"name": "str", "xref": {"fqname": "functions.str", "project": "--std--"}, "params": null}, "documentation": []}, {"name": "cdisc_rules_engine.models.external_dictionaries_container.ExternalDictionariesContainer.get_dictionary_validator_class", "asynchronous": false, "params": [{"name": "self", "type": null, "default": null}, {"name": "dictionary_type", "type": {"name": "str", "xref": {"fqname": "functions.str", "project": "--std--"}, "params": null}, "default": null}], "returns": {"name": "BaseDictionaryValidator", "xref": {"fqname": "cdisc_rules_engine.models.dictionaries.base_dictionary_validator.BaseDictionaryValidator", "project": null}, "params": null}, "documentation": []}], "class_variables": [], "instance_variables": [], "inner_classes": [], "documentation": []}], "exports": []}, {"name": "cdisc_rules_engine.models.rule_conditions.not_condition_composite", "documentation": [], "functions": [], "variables": [], "classes": [{"name": "cdisc_rules_engine.models.rule_conditions.not_condition_composite.NotConditionComposite", "bases": ["ConditionInterface"], "methods": [{"name": "cdisc_rules_engine.models.rule_conditions.not_condition_composite.NotConditionComposite.__init__", "asynchronous": false, "params": [{"name": "self", "type": null, "default": null}, {"name": "key", "type": {"name": "str", "xref": {"fqname": "functions.str", "project": "--std--"}, "params": null}, "default": null}, {"name": "condition_composite", "type": {"name": "ConditionInterface", "xref": {"fqname": "cdisc_rules_engine.interfaces.ConditionInterface", "project": null}, "params": null}, "default": null}], "returns": null, "documentation": []}, {"name": "cdisc_rules_engine.models.rule_conditions.not_condition_composite.NotConditionComposite.to_dict", "asynchronous": false, "params": [{"name": "self", "type": null, "default": null}], "returns": {"name": "dict", "xref": {"fqname": "functions.dict", "project": "--std--"}, "params": null}, "documentation": ["Serializes all nested conditions into a dict."]}, {"name": "cdisc_rules_engine.models.rule_conditions.not_condition_composite.NotConditionComposite.values", "asynchronous": false, "params": [{"name": "self", "type": null, "default": null}], "returns": {"name": "List", "xref": {"fqname": "typing.List", "project": "--std--"}, "params": [{"name": "dict", "xref": {"fqname": "functions.dict", "project": "--std--"}, "params": null}]}, "documentation": ["Returns the list of nested conditions\nas a list of dictionaries."]}, {"name": "cdisc_rules_engine.models.rule_conditions.not_condition_composite.NotConditionComposite.items", "asynchronous": false, "params": [{"name": "self", "type": null, "default": null}], "returns": {"name": "List", "xref": {"fqname": "typing.List", "project": "--std--"}, "params": [{"name": "tuple", "xref": {"fqname": "functions.tuple", "project": "--std--"}, "params": null}]}, "documentation": []}, {"name": "cdisc_rules_engine.models.rule_conditions.not_condition_composite.NotConditionComposite.add_conditions_for_targets", "asynchronous": false, "params": [{"name": "self", "type": null, "default": null}, {"name": "targets", "type": {"name": "List", "xref": {"fqname": "typing.List", "project": "--std--"}, "params": [{"name": "str", "xref": {"fqname": "functions.str", "project": "--std--"}, "params": null}]}, "default": null}], "returns": null, "documentation": []}, {"name": "cdisc_rules_engine.models.rule_conditions.not_condition_composite.NotConditionComposite.copy", "asynchronous": false, "params": [{"name": "self", "type": null, "default": null}], "returns": {"name": "NotConditionComposite", "xref": {"fqname": "cdisc_rules_engine.models.rule_conditions.not_condition_composite.NotConditionComposite", "project": null}, "params": null}, "documentation": []}, {"name": "cdisc_rules_engine.models.rule_conditions.not_condition_composite.NotConditionComposite.should_copy", "asynchronous": false, "params": [{"name": "self", "type": null, "default": null}], "returns": {"name": "bool", "xref": {"fqname": "functions.bool", "project": "--std--"}, "params": null}, "documentation": []}, {"name": "cdisc_rules_engine.models.rule_conditions.not_condition_composite.NotConditionComposite.get_conditions", "asynchronous": false, "params": [{"name": "self", "type": null, "default": null}], "returns": {"name": "dict", "xref": {"fqname": "functions.dict", "project": "--std--"}, "params": null}, "documentation": []}, {"name": "cdisc_rules_engine.models.rule_conditions.not_condition_composite.NotConditionComposite.set_target", "asynchronous": false, "params": [{"name": "self", "type": null, "default": null}, {"name": "target", "type": null, "default": null}], "returns": {"name": "ConditionInterface", "xref": {"fqname": "cdisc_rules_engine.interfaces.ConditionInterface", "project": null}, "params": null}, "documentation": []}, {"name": "cdisc_rules_engine.models.rule_conditions.not_condition_composite.NotConditionComposite.set_conditions", "asynchronous": false, "params": [{"name": "self", "type": null, "default": null}, {"name": "conditions", "type": {"name": "dict", "xref": {"fqname": "functions.dict", "project": "--std--"}, "params": null}, "default": null}], "returns": null, "documentation": []}], "class_variables": [], "instance_variables": [], "inner_classes": [], "documentation": ["Represents a \"not\" condition.\n\"not\" condition wraps a usual composite and looks like:\n{\n    \"not\": {\n        \"all\": [\n            {\n                \"any\": [\n                    {\"value\": {\"target\": \"dataset_name\"}},\n                    {\"value\": {\"target\": \"dataset_label\"}},\n                ]\n            },\n            {\"value\": {\"target\": \"dataset_location\"}},\n        ]\n    },\n}"]}], "exports": []}, {"name": "cdisc_rules_engine.models.rule_conditions", "documentation": [], "functions": [], "variables": [], "classes": [], "exports": [{"name": "cdisc_rules_engine.models.rule_conditions.AllowedConditionsKeys", "xref": {"fqname": "cdisc_rules_engine.models.rule_conditions.allowed_conditions_keys.AllowedConditionsKeys", "project": null}}, {"name": "cdisc_rules_engine.models.rule_conditions.ConditionCompositeFactory", "xref": {"fqname": "cdisc_rules_engine.models.rule_conditions.condition_composite_factory.ConditionCompositeFactory", "project": null}}]}, {"name": "cdisc_rules_engine.models.rule_conditions.condition_composite", "documentation": [], "functions": [], "variables": [], "classes": [{"name": "cdisc_rules_engine.models.rule_conditions.condition_composite.ConditionComposite", "bases": ["ConditionInterface"], "methods": [{"name": "cdisc_rules_engine.models.rule_conditions.condition_composite.ConditionComposite.__init__", "asynchronous": false, "params": [{"name": "self", "type": null, "default": null}], "returns": null, "documentation": []}, {"name": "cdisc_rules_engine.models.rule_conditions.condition_composite.ConditionComposite.get_conditions", "asynchronous": false, "params": [{"name": "self", "type": null, "default": null}], "returns": {"name": "dict", "xref": {"fqname": "functions.dict", "project": "--std--"}, "params": null}, "documentation": []}, {"name": "cdisc_rules_engine.models.rule_conditions.condition_composite.ConditionComposite.set_target", "asynchronous": false, "params": [{"name": "self", "type": null, "default": null}, {"name": "target", "type": null, "default": null}], "returns": {"name": "ConditionInterface", "xref": {"fqname": "cdisc_rules_engine.interfaces.ConditionInterface", "project": null}, "params": null}, "documentation": []}, {"name": "cdisc_rules_engine.models.rule_conditions.condition_composite.ConditionComposite.set_conditions", "asynchronous": false, "params": [{"name": "self", "type": null, "default": null}, {"name": "conditions", "type": {"name": "dict", "xref": {"fqname": "functions.dict", "project": "--std--"}, "params": null}, "default": null}], "returns": null, "documentation": []}, {"name": "cdisc_rules_engine.models.rule_conditions.condition_composite.ConditionComposite.copy", "asynchronous": false, "params": [{"name": "self", "type": null, "default": null}], "returns": null, "documentation": []}, {"name": "cdisc_rules_engine.models.rule_conditions.condition_composite.ConditionComposite.add_conditions", "asynchronous": false, "params": [{"name": "self", "type": null, "default": null}, {"name": "key", "type": {"name": "str", "xref": {"fqname": "functions.str", "project": "--std--"}, "params": null}, "default": null}, {"name": "conditions", "type": {"name": "List", "xref": {"fqname": "typing.List", "project": "--std--"}, "params": [{"name": "ConditionInterface", "xref": {"fqname": "cdisc_rules_engine.interfaces.ConditionInterface", "project": null}, "params": null}]}, "default": null}], "returns": null, "documentation": ["Adds a list of objects with ConditionInterface\ninterface to the given key."]}, {"name": "cdisc_rules_engine.models.rule_conditions.condition_composite.ConditionComposite.to_dict", "asynchronous": false, "params": [{"name": "self", "type": null, "default": null}], "returns": {"name": "dict", "xref": {"fqname": "functions.dict", "project": "--std--"}, "params": null}, "documentation": ["Serializes all nested conditions into a dict."]}, {"name": "cdisc_rules_engine.models.rule_conditions.condition_composite.ConditionComposite.values", "asynchronous": false, "params": [{"name": "self", "type": null, "default": null}], "returns": {"name": "List", "xref": {"fqname": "typing.List", "project": "--std--"}, "params": [{"name": "dict", "xref": {"fqname": "functions.dict", "project": "--std--"}, "params": null}]}, "documentation": ["Returns the nested conditions\nas a list of dictionaries.\nAll nested conditions are recursively unpacked into\na one-dimensional list. It is convenient when there is\na need to process all values."]}, {"name": "cdisc_rules_engine.models.rule_conditions.condition_composite.ConditionComposite.items", "asynchronous": false, "params": [{"name": "self", "type": null, "default": null}], "returns": {"name": "List", "xref": {"fqname": "typing.List", "project": "--std--"}, "params": [{"name": "tuple", "xref": {"fqname": "functions.tuple", "project": "--std--"}, "params": null}]}, "documentation": ["Returns a list of tuples for each nested condition like:\n[\n    (\"all\", [{\"operator\": \"empty\", \"name\": \"get_dataset\"}]),\n    (\n        \"any\",\n        [\n            {\n                \"operator\": \"empty\",\n                \"name\": \"get_dataset\"\n            },\n            {\n                \"equal_to\": \"empty\",\n                \"name\": \"get_dataset\",\n                \"value\": {\"comparator\": 100}\n            }\n        ]\n    ),\n    ...\n]"]}, {"name": "cdisc_rules_engine.models.rule_conditions.condition_composite.ConditionComposite.should_copy", "asynchronous": false, "params": [{"name": "self", "type": null, "default": null}], "returns": {"name": "bool", "xref": {"fqname": "functions.bool", "project": "--std--"}, "params": null}, "documentation": []}], "class_variables": [], "instance_variables": [], "inner_classes": [], "documentation": ["This class contains a condition that can include\nnested conditions like:\